"ID","Group","Subject","Initials","Condition","Item number","Block","Trial","Audio stimuli","Reaction time","Accuracy","Target response","Participant response","Response type"
"C,1,EB","C","1","EB","Native","42","4","2","Pa4-Pa2","4752.32",1,"Same","Same","CR"
"C,1,EB","C","1","EB","Native","43","4","3","Pha1-Pa4","3731.17",1,"Different","Different","Hit"
"C,1,EB","C","1","EB","Native","41","4","1","Pha2-Pha1","3858.00",1,"Same","Same","CR"
"C,1,EB","C","1","EB","Native","44","4","4","Pa5-Pha1","3868.16",1,"Different","Different","Hit"
"C,1,EB","C","1","EB","Native","21","2","1","Pha5-Pha1","3485.46",1,"Same","Same","CR"
"C,1,EB","C","1","EB","Native","24","2","4","Pa4-Pha1","3309.74",1,"Different","Different","Hit"
"C,1,EB","C","1","EB","Native","22","2","2","Pa5-Pa2","3684.63",1,"Same","Same","CR"
"C,1,EB","C","1","EB","Native","23","2","3","Pha2-Pa4","3329.54",1,"Different","Different","Hit"
"C,1,EB","C","1","EB","Native","13","1","3","Pha1-Pa2","3633.59",1,"Different","Different","Hit"
"C,1,EB","C","1","EB","Native","14","1","4","Pa2-Pha5","3721.86",1,"Different","Different","Hit"
"C,1,EB","C","1","EB","Native","12","1","2","Pa2-Pa4","3675.00",1,"Same","Same","CR"
"C,1,EB","C","1","EB","Native","11","1","1","Pha1-Pha2","3417.50",1,"Same","Same","CR"
"C,1,EB","C","1","EB","Native","31","3","1","Pha2-Pha5","3302.44",1,"Same","Same","CR"
"C,1,EB","C","1","EB","Native","33","3","3","Pha5-Pa5","3790.99",1,"Different","Different","Hit"
"C,1,EB","C","1","EB","Native","34","3","4","Pa2-Pha2","4306.87",1,"Different","Different","Hit"
"C,1,EB","C","1","EB","Native","32","3","2","Pa4-Pa5","3432.92",1,"Same","Same","CR"
"D,1,ZL","D","1","ZL","Native","12","1","2","Pa2-Pa4","3342.21",1,"Same","Same","CR"
"D,1,ZL","D","1","ZL","Native","13","1","3","Pha1-Pa2","3285.74",1,"Different","Different","Hit"
"D,1,ZL","D","1","ZL","Native","14","1","4","Pa2-Pha5","-3423.42",0,"Different","Same","Miss"
"D,1,ZL","D","1","ZL","Native","11","1","1","Pha1-Pha2","3349.23",1,"Same","Same","CR"
"D,1,ZL","D","1","ZL","Native","34","3","4","Pa2-Pha2","3443.05",1,"Different","Different","Hit"
"D,1,ZL","D","1","ZL","Native","32","3","2","Pa4-Pa5","3107.92",1,"Same","Same","CR"
"D,1,ZL","D","1","ZL","Native","33","3","3","Pha5-Pa5","3410.30",1,"Different","Different","Hit"
"D,1,ZL","D","1","ZL","Native","31","3","1","Pha2-Pha5","2873.31",1,"Same","Same","CR"
"D,1,ZL","D","1","ZL","Native","24","2","4","Pa4-Pha1","3363.56",1,"Different","Different","Hit"
"D,1,ZL","D","1","ZL","Native","22","2","2","Pa5-Pa2","3077.06",1,"Same","Same","CR"
"D,1,ZL","D","1","ZL","Native","21","2","1","Pha5-Pha1","3187.40",1,"Same","Same","CR"
"D,1,ZL","D","1","ZL","Native","23","2","3","Pha2-Pa4","4563.69",1,"Different","Different","Hit"
"D,1,ZL","D","1","ZL","Native","43","4","3","Pha1-Pa4","4144.57",1,"Different","Different","Hit"
"D,1,ZL","D","1","ZL","Native","42","4","2","Pa4-Pa2","3479.60",1,"Same","Same","CR"
"D,1,ZL","D","1","ZL","Native","44","4","4","Pa5-Pha1","3123.42",1,"Different","Different","Hit"
"D,1,ZL","D","1","ZL","Native","41","4","1","Pha2-Pha1","2922.68",1,"Same","Same","CR"
"D,2,IL","D","2","IL","Native","23","2","3","Pha2-Pa4","-3610.61",0,"Different","Same","Miss"
"D,2,IL","D","2","IL","Native","22","2","2","Pa5-Pa2","3687.85",1,"Same","Same","CR"
"D,2,IL","D","2","IL","Native","21","2","1","Pha5-Pha1","3797.34",1,"Same","Same","CR"
"D,2,IL","D","2","IL","Native","24","2","4","Pa4-Pha1","4866.88",1,"Different","Different","Hit"
"D,2,IL","D","2","IL","Native","13","1","3","Pha1-Pa2","3236.72",1,"Different","Different","Hit"
"D,2,IL","D","2","IL","Native","12","1","2","Pa2-Pa4","3786.96",1,"Same","Same","CR"
"D,2,IL","D","2","IL","Native","11","1","1","Pha1-Pha2","3448.13",1,"Same","Same","CR"
"D,2,IL","D","2","IL","Native","14","1","4","Pa2-Pha5","4313.55",1,"Different","Different","Hit"
"D,2,IL","D","2","IL","Native","31","3","1","Pha2-Pha5","3366.54",1,"Same","Same","CR"
"D,2,IL","D","2","IL","Native","34","3","4","Pa2-Pha2","3770.77",1,"Different","Different","Hit"
"D,2,IL","D","2","IL","Native","33","3","3","Pha5-Pa5","4169.54",1,"Different","Different","Hit"
"D,2,IL","D","2","IL","Native","32","3","2","Pa4-Pa5","3425.88",1,"Same","Same","CR"
"D,2,IL","D","2","IL","Native","41","4","1","Pha2-Pha1","4787.73",1,"Same","Same","CR"
"D,2,IL","D","2","IL","Native","44","4","4","Pa5-Pha1","4066.43",1,"Different","Different","Hit"
"D,2,IL","D","2","IL","Native","43","4","3","Pha1-Pa4","2899.08",1,"Different","Different","Hit"
"D,2,IL","D","2","IL","Native","42","4","2","Pa4-Pa2","3731.92",1,"Same","Same","CR"
"D,3,FM","D","3","FM","Native","42","4","2","Pa4-Pa2","3643.02",1,"Same","Same","CR"
"D,3,FM","D","3","FM","Native","44","4","4","Pa5-Pha1","2872.30",1,"Different","Different","Hit"
"D,3,FM","D","3","FM","Native","41","4","1","Pha2-Pha1","2889.43",1,"Same","Same","CR"
"D,3,FM","D","3","FM","Native","43","4","3","Pha1-Pa4","3019.00",1,"Different","Different","Hit"
"D,3,FM","D","3","FM","Native","11","1","1","Pha1-Pha2","2961.22",1,"Same","Same","CR"
"D,3,FM","D","3","FM","Native","13","1","3","Pha1-Pa2","3191.12",1,"Different","Different","Hit"
"D,3,FM","D","3","FM","Native","12","1","2","Pa2-Pa4","2861.84",1,"Same","Same","CR"
"D,3,FM","D","3","FM","Native","14","1","4","Pa2-Pha5","2939.11",1,"Different","Different","Hit"
"D,3,FM","D","3","FM","Native","24","2","4","Pa4-Pha1","3199.21",1,"Different","Different","Hit"
"D,3,FM","D","3","FM","Native","22","2","2","Pa5-Pa2","3019.37",1,"Same","Same","CR"
"D,3,FM","D","3","FM","Native","21","2","1","Pha5-Pha1","3498.85",1,"Same","Same","CR"
"D,3,FM","D","3","FM","Native","23","2","3","Pha2-Pa4","3046.22",1,"Different","Different","Hit"
"D,3,FM","D","3","FM","Native","31","3","1","Pha2-Pha5","3104.77",1,"Same","Same","CR"
"D,3,FM","D","3","FM","Native","33","3","3","Pha5-Pa5","3016.30",1,"Different","Different","Hit"
"D,3,FM","D","3","FM","Native","32","3","2","Pa4-Pa5","3016.81",1,"Same","Same","CR"
"D,3,FM","D","3","FM","Native","34","3","4","Pa2-Pha2","3343.61",1,"Different","Different","Hit"
"D,4,IM","D","4","IM","Native","33","3","3","Pha5-Pa5","7572.74",1,"Different","Different","Hit"
"D,4,IM","D","4","IM","Native","34","3","4","Pa2-Pha2","8656.12",1,"Different","Different","Hit"
"D,4,IM","D","4","IM","Native","32","3","2","Pa4-Pa5","3470.87",1,"Same","Same","CR"
"D,4,IM","D","4","IM","Native","31","3","1","Pha2-Pha5","3924.33",1,"Same","Same","CR"
"D,4,IM","D","4","IM","Native","14","1","4","Pa2-Pha5","6071.13",1,"Different","Different","Hit"
"D,4,IM","D","4","IM","Native","12","1","2","Pa2-Pa4","3455.16",1,"Same","Same","CR"
"D,4,IM","D","4","IM","Native","11","1","1","Pha1-Pha2","3328.92",1,"Same","Same","CR"
"D,4,IM","D","4","IM","Native","13","1","3","Pha1-Pa2","3346.17",1,"Different","Different","Hit"
"D,4,IM","D","4","IM","Native","24","2","4","Pa4-Pha1","5218.42",1,"Different","Different","Hit"
"D,4,IM","D","4","IM","Native","21","2","1","Pha5-Pha1","3161.50",1,"Same","Same","CR"
"D,4,IM","D","4","IM","Native","23","2","3","Pha2-Pa4","4949.23",1,"Different","Different","Hit"
"D,4,IM","D","4","IM","Native","22","2","2","Pa5-Pa2","2977.87",1,"Same","Same","CR"
"D,4,IM","D","4","IM","Native","44","4","4","Pa5-Pha1","8672.53",1,"Different","Different","Hit"
"D,4,IM","D","4","IM","Native","42","4","2","Pa4-Pa2","5514.62",1,"Same","Same","CR"
"D,4,IM","D","4","IM","Native","41","4","1","Pha2-Pha1","4619.04",1,"Same","Same","CR"
"D,4,IM","D","4","IM","Native","43","4","3","Pha1-Pa4","4782.23",1,"Different","Different","Hit"
"D,5,EM","D","5","EM","Native","31","3","1","Pha2-Pha5","3968.32",1,"Same","Same","CR"
"D,5,EM","D","5","EM","Native","33","3","3","Pha5-Pa5","3529.11",1,"Different","Different","Hit"
"D,5,EM","D","5","EM","Native","32","3","2","Pa4-Pa5","3479.08",1,"Same","Same","CR"
"D,5,EM","D","5","EM","Native","34","3","4","Pa2-Pha2","3666.76",1,"Different","Different","Hit"
"D,5,EM","D","5","EM","Native","44","4","4","Pa5-Pha1","3490.32",1,"Different","Different","Hit"
"D,5,EM","D","5","EM","Native","43","4","3","Pha1-Pa4","3711.03",1,"Different","Different","Hit"
"D,5,EM","D","5","EM","Native","42","4","2","Pa4-Pa2","3538.67",1,"Same","Same","CR"
"D,5,EM","D","5","EM","Native","41","4","1","Pha2-Pha1","4028.68",1,"Same","Same","CR"
"D,5,EM","D","5","EM","Native","14","1","4","Pa2-Pha5","3250.34",1,"Different","Different","Hit"
"D,5,EM","D","5","EM","Native","13","1","3","Pha1-Pa2","3388.11",1,"Different","Different","Hit"
"D,5,EM","D","5","EM","Native","11","1","1","Pha1-Pha2","3459.37",1,"Same","Same","CR"
"D,5,EM","D","5","EM","Native","12","1","2","Pa2-Pa4","3297.90",1,"Same","Same","CR"
"D,5,EM","D","5","EM","Native","21","2","1","Pha5-Pha1","3084.93",1,"Same","Same","CR"
"D,5,EM","D","5","EM","Native","23","2","3","Pha2-Pa4","3285.36",1,"Different","Different","Hit"
"D,5,EM","D","5","EM","Native","22","2","2","Pa5-Pa2","3200.11",1,"Same","Same","CR"
"D,5,EM","D","5","EM","Native","24","2","4","Pa4-Pha1","3422.22",1,"Different","Different","Hit"
"D,6,PH","D","6","PH","Native","21","2","1","Pha5-Pha1","3678.13",1,"Same","Same","CR"
"D,6,PH","D","6","PH","Native","22","2","2","Pa5-Pa2","-7151.20",0,"Same","Different","False+"
"D,6,PH","D","6","PH","Native","24","2","4","Pa4-Pha1","3786.40",1,"Different","Different","Hit"
"D,6,PH","D","6","PH","Native","23","2","3","Pha2-Pa4","3623.64",1,"Different","Different","Hit"
"D,6,PH","D","6","PH","Native","41","4","1","Pha2-Pha1","3134.62",1,"Same","Same","CR"
"D,6,PH","D","6","PH","Native","42","4","2","Pa4-Pa2","3185.72",1,"Same","Same","CR"
"D,6,PH","D","6","PH","Native","43","4","3","Pha1-Pa4","3276.78",1,"Different","Different","Hit"
"D,6,PH","D","6","PH","Native","44","4","4","Pa5-Pha1","3101.06",1,"Different","Different","Hit"
"D,6,PH","D","6","PH","Native","11","1","1","Pha1-Pha2","3572.31",1,"Same","Same","CR"
"D,6,PH","D","6","PH","Native","13","1","3","Pha1-Pa2","3127.70",1,"Different","Different","Hit"
"D,6,PH","D","6","PH","Native","14","1","4","Pa2-Pha5","3560.91",1,"Different","Different","Hit"
"D,6,PH","D","6","PH","Native","12","1","2","Pa2-Pa4","4334.94",1,"Same","Same","CR"
"D,6,PH","D","6","PH","Native","33","3","3","Pha5-Pa5","3339.08",1,"Different","Different","Hit"
"D,6,PH","D","6","PH","Native","32","3","2","Pa4-Pa5","3240.59",1,"Same","Same","CR"
"D,6,PH","D","6","PH","Native","31","3","1","Pha2-Pha5","3450.99",1,"Same","Same","CR"
"D,6,PH","D","6","PH","Native","34","3","4","Pa2-Pha2","4819.65",1,"Different","Different","Hit"
"D,13,MR","D","13","MR","Native","44","4","4","Pa5-Pha1","4880.39",1,"Different","Different","Hit"
"D,13,MR","D","13","MR","Native","41","4","1","Pha2-Pha1","3082.82",1,"Same","Same","CR"
"D,13,MR","D","13","MR","Native","42","4","2","Pa4-Pa2","3439.57",1,"Same","Same","CR"
"D,13,MR","D","13","MR","Native","43","4","3","Pha1-Pa4","3321.21",1,"Different","Different","Hit"
"D,13,MR","D","13","MR","Native","11","1","1","Pha1-Pha2","3528.58",1,"Same","Same","CR"
"D,13,MR","D","13","MR","Native","14","1","4","Pa2-Pha5","3351.52",1,"Different","Different","Hit"
"D,13,MR","D","13","MR","Native","13","1","3","Pha1-Pa2","3358.11",1,"Different","Different","Hit"
"D,13,MR","D","13","MR","Native","12","1","2","Pa2-Pa4","3147.84",1,"Same","Same","CR"
"D,13,MR","D","13","MR","Native","34","3","4","Pa2-Pha2","2788.66",1,"Different","Different","Hit"
"D,13,MR","D","13","MR","Native","33","3","3","Pha5-Pa5","3298.48",1,"Different","Different","Hit"
"D,13,MR","D","13","MR","Native","32","3","2","Pa4-Pa5","3138.77",1,"Same","Same","CR"
"D,13,MR","D","13","MR","Native","31","3","1","Pha2-Pha5","3264.42",1,"Same","Same","CR"
"D,13,MR","D","13","MR","Native","24","2","4","Pa4-Pha1","3632.78",1,"Different","Different","Hit"
"D,13,MR","D","13","MR","Native","23","2","3","Pha2-Pa4","4217.05",1,"Different","Different","Hit"
"D,13,MR","D","13","MR","Native","21","2","1","Pha5-Pha1","3306.24",1,"Same","Same","CR"
"D,13,MR","D","13","MR","Native","22","2","2","Pa5-Pa2","3244.26",1,"Same","Same","CR"
"C,3,TC","C","3","TC","Native","13","1","3","Pha1-Pa2","3340.98",1,"Different","Different","Hit"
"C,3,TC","C","3","TC","Native","11","1","1","Pha1-Pha2","2909.66",1,"Same","Same","CR"
"C,3,TC","C","3","TC","Native","14","1","4","Pa2-Pha5","3142.32",1,"Different","Different","Hit"
"C,3,TC","C","3","TC","Native","12","1","2","Pa2-Pa4","2988.18",1,"Same","Same","CR"
"C,3,TC","C","3","TC","Native","24","2","4","Pa4-Pha1","3060.87",1,"Different","Different","Hit"
"C,3,TC","C","3","TC","Native","22","2","2","Pa5-Pa2","2876.28",1,"Same","Same","CR"
"C,3,TC","C","3","TC","Native","21","2","1","Pha5-Pha1","4557.47",1,"Same","Same","CR"
"C,3,TC","C","3","TC","Native","23","2","3","Pha2-Pa4","2654.21",1,"Different","Different","Hit"
"C,3,TC","C","3","TC","Native","41","4","1","Pha2-Pha1","3435.27",1,"Same","Same","CR"
"C,3,TC","C","3","TC","Native","43","4","3","Pha1-Pa4","2971.38",1,"Different","Different","Hit"
"C,3,TC","C","3","TC","Native","42","4","2","Pa4-Pa2","2994.81",1,"Same","Same","CR"
"C,3,TC","C","3","TC","Native","44","4","4","Pa5-Pha1","3207.95",1,"Different","Different","Hit"
"C,3,TC","C","3","TC","Native","31","3","1","Pha2-Pha5","4721.11",1,"Same","Same","CR"
"C,3,TC","C","3","TC","Native","32","3","2","Pa4-Pa5","2928.90",1,"Same","Same","CR"
"C,3,TC","C","3","TC","Native","34","3","4","Pa2-Pha2","3119.72",1,"Different","Different","Hit"
"C,3,TC","C","3","TC","Native","33","3","3","Pha5-Pa5","5559.34",1,"Different","Different","Hit"
"C,4,MC","C","4","MC","Native","42","4","2","Pa4-Pa2","5376.81",1,"Same","Same","CR"
"C,4,MC","C","4","MC","Native","43","4","3","Pha1-Pa4","5402.95",1,"Different","Different","Hit"
"C,4,MC","C","4","MC","Native","41","4","1","Pha2-Pha1","-8733.15",0,"Same","Different","False+"
"C,4,MC","C","4","MC","Native","44","4","4","Pa5-Pha1","5197.25",1,"Different","Different","Hit"
"C,4,MC","C","4","MC","Native","11","1","1","Pha1-Pha2","3790.47",1,"Same","Same","CR"
"C,4,MC","C","4","MC","Native","13","1","3","Pha1-Pa2","-8890.63",0,"Different","Same","Miss"
"C,4,MC","C","4","MC","Native","14","1","4","Pa2-Pha5","7563.28",1,"Different","Different","Hit"
"C,4,MC","C","4","MC","Native","12","1","2","Pa2-Pa4","4987.68",1,"Same","Same","CR"
"C,4,MC","C","4","MC","Native","22","2","2","Pa5-Pa2","7086.82",1,"Same","Same","CR"
"C,4,MC","C","4","MC","Native","21","2","1","Pha5-Pha1","4746.91",1,"Same","Same","CR"
"C,4,MC","C","4","MC","Native","24","2","4","Pa4-Pha1","-5584.50",0,"Different","Same","Miss"
"C,4,MC","C","4","MC","Native","23","2","3","Pha2-Pa4","-5638.21",0,"Different","Same","Miss"
"C,4,MC","C","4","MC","Native","33","3","3","Pha5-Pa5","5963.79",1,"Different","Different","Hit"
"C,4,MC","C","4","MC","Native","32","3","2","Pa4-Pa5","4054.07",1,"Same","Same","CR"
"C,4,MC","C","4","MC","Native","31","3","1","Pha2-Pha5","3661.70",1,"Same","Same","CR"
"C,4,MC","C","4","MC","Native","34","3","4","Pa2-Pha2","4397.77",1,"Different","Different","Hit"
"D,7,BB","D","7","BB","Native","22","2","2","Pa5-Pa2","3779.58",1,"Same","Same","CR"
"D,7,BB","D","7","BB","Native","24","2","4","Pa4-Pha1","3501.93",1,"Different","Different","Hit"
"D,7,BB","D","7","BB","Native","21","2","1","Pha5-Pha1","3466.26",1,"Same","Same","CR"
"D,7,BB","D","7","BB","Native","23","2","3","Pha2-Pa4","3285.76",1,"Different","Different","Hit"
"D,7,BB","D","7","BB","Native","43","4","3","Pha1-Pa4","5555.02",1,"Different","Different","Hit"
"D,7,BB","D","7","BB","Native","44","4","4","Pa5-Pha1","3686.13",1,"Different","Different","Hit"
"D,7,BB","D","7","BB","Native","42","4","2","Pa4-Pa2","3374.38",1,"Same","Same","CR"
"D,7,BB","D","7","BB","Native","41","4","1","Pha2-Pha1","4653.03",1,"Same","Same","CR"
"D,7,BB","D","7","BB","Native","13","1","3","Pha1-Pa2","-3275.33",0,"Different","Same","Miss"
"D,7,BB","D","7","BB","Native","12","1","2","Pa2-Pa4","3496.56",1,"Same","Same","CR"
"D,7,BB","D","7","BB","Native","14","1","4","Pa2-Pha5","3170.01",1,"Different","Different","Hit"
"D,7,BB","D","7","BB","Native","11","1","1","Pha1-Pha2","4733.22",1,"Same","Same","CR"
"D,7,BB","D","7","BB","Native","32","3","2","Pa4-Pa5","4273.82",1,"Same","Same","CR"
"D,7,BB","D","7","BB","Native","34","3","4","Pa2-Pha2","4793.48",1,"Different","Different","Hit"
"D,7,BB","D","7","BB","Native","31","3","1","Pha2-Pha5","3416.59",1,"Same","Same","CR"
"D,7,BB","D","7","BB","Native","33","3","3","Pha5-Pa5","4091.34",1,"Different","Different","Hit"
"D,8,JB","D","8","JB","Native","21","2","1","Pha5-Pha1","3280.02",1,"Same","Same","CR"
"D,8,JB","D","8","JB","Native","22","2","2","Pa5-Pa2","3400.70",1,"Same","Same","CR"
"D,8,JB","D","8","JB","Native","24","2","4","Pa4-Pha1","3432.28",1,"Different","Different","Hit"
"D,8,JB","D","8","JB","Native","23","2","3","Pha2-Pa4","5769.02",1,"Different","Different","Hit"
"D,8,JB","D","8","JB","Native","43","4","3","Pha1-Pa4","3631.07",1,"Different","Different","Hit"
"D,8,JB","D","8","JB","Native","44","4","4","Pa5-Pha1","4101.04",1,"Different","Different","Hit"
"D,8,JB","D","8","JB","Native","42","4","2","Pa4-Pa2","3118.79",1,"Same","Same","CR"
"D,8,JB","D","8","JB","Native","41","4","1","Pha2-Pha1","3179.09",1,"Same","Same","CR"
"D,8,JB","D","8","JB","Native","13","1","3","Pha1-Pa2","3892.72",1,"Different","Different","Hit"
"D,8,JB","D","8","JB","Native","12","1","2","Pa2-Pa4","3139.76",1,"Same","Same","CR"
"D,8,JB","D","8","JB","Native","14","1","4","Pa2-Pha5","4832.43",1,"Different","Different","Hit"
"D,8,JB","D","8","JB","Native","11","1","1","Pha1-Pha2","3304.45",1,"Same","Same","CR"
"D,8,JB","D","8","JB","Native","33","3","3","Pha5-Pa5","4619.88",1,"Different","Different","Hit"
"D,8,JB","D","8","JB","Native","34","3","4","Pa2-Pha2","4213.19",1,"Different","Different","Hit"
"D,8,JB","D","8","JB","Native","32","3","2","Pa4-Pa5","3029.87",1,"Same","Same","CR"
"D,8,JB","D","8","JB","Native","31","3","1","Pha2-Pha5","3982.95",1,"Same","Same","CR"
"D,9,EB","D","9","EB","Native","42","4","2","Pa4-Pa2","3721.52",1,"Same","Same","CR"
"D,9,EB","D","9","EB","Native","44","4","4","Pa5-Pha1","3386.52",1,"Different","Different","Hit"
"D,9,EB","D","9","EB","Native","41","4","1","Pha2-Pha1","3142.57",1,"Same","Same","CR"
"D,9,EB","D","9","EB","Native","43","4","3","Pha1-Pa4","3097.62",1,"Different","Different","Hit"
"D,9,EB","D","9","EB","Native","21","2","1","Pha5-Pha1","5621.97",1,"Same","Same","CR"
"D,9,EB","D","9","EB","Native","23","2","3","Pha2-Pa4","3303.66",1,"Different","Different","Hit"
"D,9,EB","D","9","EB","Native","22","2","2","Pa5-Pa2","3991.39",1,"Same","Same","CR"
"D,9,EB","D","9","EB","Native","24","2","4","Pa4-Pha1","3393.90",1,"Different","Different","Hit"
"D,9,EB","D","9","EB","Native","12","1","2","Pa2-Pa4","3065.43",1,"Same","Same","CR"
"D,9,EB","D","9","EB","Native","14","1","4","Pa2-Pha5","3231.87",1,"Different","Different","Hit"
"D,9,EB","D","9","EB","Native","11","1","1","Pha1-Pha2","3108.38",1,"Same","Same","CR"
"D,9,EB","D","9","EB","Native","13","1","3","Pha1-Pa2","3085.47",1,"Different","Different","Hit"
"D,9,EB","D","9","EB","Native","34","3","4","Pa2-Pha2","3094.47",1,"Different","Different","Hit"
"D,9,EB","D","9","EB","Native","32","3","2","Pa4-Pa5","3232.35",1,"Same","Same","CR"
"D,9,EB","D","9","EB","Native","31","3","1","Pha2-Pha5","3297.07",1,"Same","Same","CR"
"D,9,EB","D","9","EB","Native","33","3","3","Pha5-Pa5","3207.43",1,"Different","Different","Hit"
"C,8,OH","C","8","OH","Native","12","1","2","Pa2-Pa4","-6436.63",0,"Same","Different","False+"
"C,8,OH","C","8","OH","Native","13","1","3","Pha1-Pa2","3478.32",1,"Different","Different","Hit"
"C,8,OH","C","8","OH","Native","11","1","1","Pha1-Pha2","3204.98",1,"Same","Same","CR"
"C,8,OH","C","8","OH","Native","14","1","4","Pa2-Pha5","3309.47",1,"Different","Different","Hit"
"C,8,OH","C","8","OH","Native","42","4","2","Pa4-Pa2","3449.06",1,"Same","Same","CR"
"C,8,OH","C","8","OH","Native","41","4","1","Pha2-Pha1","3234.41",1,"Same","Same","CR"
"C,8,OH","C","8","OH","Native","43","4","3","Pha1-Pa4","3073.01",1,"Different","Different","Hit"
"C,8,OH","C","8","OH","Native","44","4","4","Pa5-Pha1","4083.03",1,"Different","Different","Hit"
"C,8,OH","C","8","OH","Native","32","3","2","Pa4-Pa5","3109.56",1,"Same","Same","CR"
"C,8,OH","C","8","OH","Native","34","3","4","Pa2-Pha2","3086.47",1,"Different","Different","Hit"
"C,8,OH","C","8","OH","Native","33","3","3","Pha5-Pa5","3784.52",1,"Different","Different","Hit"
"C,8,OH","C","8","OH","Native","31","3","1","Pha2-Pha5","4848.04",1,"Same","Same","CR"
"C,8,OH","C","8","OH","Native","24","2","4","Pa4-Pha1","3608.08",1,"Different","Different","Hit"
"C,8,OH","C","8","OH","Native","21","2","1","Pha5-Pha1","4863.56",1,"Same","Same","CR"
"C,8,OH","C","8","OH","Native","23","2","3","Pha2-Pa4","4181.82",1,"Different","Different","Hit"
"C,8,OH","C","8","OH","Native","22","2","2","Pa5-Pa2","4233.53",1,"Same","Same","CR"
"C,6,BS","C","6","BS","Native","23","2","3","Pha2-Pa4","5018.99",1,"Different","Different","Hit"
"C,6,BS","C","6","BS","Native","24","2","4","Pa4-Pha1","3480.98",1,"Different","Different","Hit"
"C,6,BS","C","6","BS","Native","21","2","1","Pha5-Pha1","3640.39",1,"Same","Same","CR"
"C,6,BS","C","6","BS","Native","22","2","2","Pa5-Pa2","3982.54",1,"Same","Same","CR"
"C,6,BS","C","6","BS","Native","31","3","1","Pha2-Pha5","4065.80",1,"Same","Same","CR"
"C,6,BS","C","6","BS","Native","34","3","4","Pa2-Pha2","4042.98",1,"Different","Different","Hit"
"C,6,BS","C","6","BS","Native","32","3","2","Pa4-Pa5","3472.71",1,"Same","Same","CR"
"C,6,BS","C","6","BS","Native","33","3","3","Pha5-Pa5","4225.90",1,"Different","Different","Hit"
"C,6,BS","C","6","BS","Native","42","4","2","Pa4-Pa2","3603.52",1,"Same","Same","CR"
"C,6,BS","C","6","BS","Native","41","4","1","Pha2-Pha1","4556.02",1,"Same","Same","CR"
"C,6,BS","C","6","BS","Native","44","4","4","Pa5-Pha1","3458.12",1,"Different","Different","Hit"
"C,6,BS","C","6","BS","Native","43","4","3","Pha1-Pa4","-4149.57",0,"Different","Same","Miss"
"C,6,BS","C","6","BS","Native","12","1","2","Pa2-Pa4","-4391.38",0,"Same","Different","False+"
"C,6,BS","C","6","BS","Native","14","1","4","Pa2-Pha5","4344.39",1,"Different","Different","Hit"
"C,6,BS","C","6","BS","Native","11","1","1","Pha1-Pha2","-4630.00",0,"Same","Different","False+"
"C,6,BS","C","6","BS","Native","13","1","3","Pha1-Pa2","4771.73",1,"Different","Different","Hit"
"D,15,VC","D","15","VC","Native","13","1","3","Pha1-Pa2","3764.94",1,"Different","Different","Hit"
"D,15,VC","D","15","VC","Native","11","1","1","Pha1-Pha2","3321.98",1,"Same","Same","CR"
"D,15,VC","D","15","VC","Native","12","1","2","Pa2-Pa4","2876.45",1,"Same","Same","CR"
"D,15,VC","D","15","VC","Native","14","1","4","Pa2-Pha5","3568.65",1,"Different","Different","Hit"
"D,15,VC","D","15","VC","Native","41","4","1","Pha2-Pha1","3422.24",1,"Same","Same","CR"
"D,15,VC","D","15","VC","Native","42","4","2","Pa4-Pa2","3654.13",1,"Same","Same","CR"
"D,15,VC","D","15","VC","Native","43","4","3","Pha1-Pa4","3183.04",1,"Different","Different","Hit"
"D,15,VC","D","15","VC","Native","44","4","4","Pa5-Pha1","-4293.97",0,"Different","Same","Miss"
"D,15,VC","D","15","VC","Native","31","3","1","Pha2-Pha5","2769.32",1,"Same","Same","CR"
"D,15,VC","D","15","VC","Native","33","3","3","Pha5-Pa5","3940.57",1,"Different","Different","Hit"
"D,15,VC","D","15","VC","Native","34","3","4","Pa2-Pha2","5696.37",1,"Different","Different","Hit"
"D,15,VC","D","15","VC","Native","32","3","2","Pa4-Pa5","2980.74",1,"Same","Same","CR"
"D,15,VC","D","15","VC","Native","22","2","2","Pa5-Pa2","4048.86",1,"Same","Same","CR"
"D,15,VC","D","15","VC","Native","24","2","4","Pa4-Pha1","3473.19",1,"Different","Different","Hit"
"D,15,VC","D","15","VC","Native","23","2","3","Pha2-Pa4","-4372.26",0,"Different","Same","Miss"
"D,15,VC","D","15","VC","Native","21","2","1","Pha5-Pha1","5807.05",1,"Same","Same","CR"
"D,12,JC","D","12","JC","Native","23","2","3","Pha2-Pa4","3280.86",1,"Different","Different","Hit"
"D,12,JC","D","12","JC","Native","21","2","1","Pha5-Pha1","3384.04",1,"Same","Same","CR"
"D,12,JC","D","12","JC","Native","22","2","2","Pa5-Pa2","3382.20",1,"Same","Same","CR"
"D,12,JC","D","12","JC","Native","24","2","4","Pa4-Pha1","3246.64",1,"Different","Different","Hit"
"D,12,JC","D","12","JC","Native","14","1","4","Pa2-Pha5","3947.40",1,"Different","Different","Hit"
"D,12,JC","D","12","JC","Native","13","1","3","Pha1-Pa2","3082.02",1,"Different","Different","Hit"
"D,12,JC","D","12","JC","Native","11","1","1","Pha1-Pha2","3571.92",1,"Same","Same","CR"
"D,12,JC","D","12","JC","Native","12","1","2","Pa2-Pa4","3518.94",1,"Same","Same","CR"
"D,12,JC","D","12","JC","Native","32","3","2","Pa4-Pa5","3270.38",1,"Same","Same","CR"
"D,12,JC","D","12","JC","Native","31","3","1","Pha2-Pha5","3721.00",1,"Same","Same","CR"
"D,12,JC","D","12","JC","Native","33","3","3","Pha5-Pa5","3113.23",1,"Different","Different","Hit"
"D,12,JC","D","12","JC","Native","34","3","4","Pa2-Pha2","3255.76",1,"Different","Different","Hit"
"D,12,JC","D","12","JC","Native","42","4","2","Pa4-Pa2","3405.03",1,"Same","Same","CR"
"D,12,JC","D","12","JC","Native","44","4","4","Pa5-Pha1","3750.11",1,"Different","Different","Hit"
"D,12,JC","D","12","JC","Native","43","4","3","Pha1-Pa4","3333.33",1,"Different","Different","Hit"
"D,12,JC","D","12","JC","Native","41","4","1","Pha2-Pha1","3106.25",1,"Same","Same","CR"
"D,11,GJ","D","11","GJ","Native","33","3","3","Pha5-Pa5","-4099.34",0,"Different","Same","Miss"
"D,11,GJ","D","11","GJ","Native","32","3","2","Pa4-Pa5","4711.82",1,"Same","Same","CR"
"D,11,GJ","D","11","GJ","Native","31","3","1","Pha2-Pha5","3487.06",1,"Same","Same","CR"
"D,11,GJ","D","11","GJ","Native","34","3","4","Pa2-Pha2","3213.65",1,"Different","Different","Hit"
"D,11,GJ","D","11","GJ","Native","43","4","3","Pha1-Pa4","4825.69",1,"Different","Different","Hit"
"D,11,GJ","D","11","GJ","Native","42","4","2","Pa4-Pa2","3648.36",1,"Same","Same","CR"
"D,11,GJ","D","11","GJ","Native","41","4","1","Pha2-Pha1","3958.32",1,"Same","Same","CR"
"D,11,GJ","D","11","GJ","Native","44","4","4","Pa5-Pha1","3239.99",1,"Different","Different","Hit"
"D,11,GJ","D","11","GJ","Native","22","2","2","Pa5-Pa2","3860.38",1,"Same","Same","CR"
"D,11,GJ","D","11","GJ","Native","24","2","4","Pa4-Pha1","3777.94",1,"Different","Different","Hit"
"D,11,GJ","D","11","GJ","Native","23","2","3","Pha2-Pa4","3756.20",1,"Different","Different","Hit"
"D,11,GJ","D","11","GJ","Native","21","2","1","Pha5-Pha1","3570.34",1,"Same","Same","CR"
"D,11,GJ","D","11","GJ","Native","14","1","4","Pa2-Pha5","3207.38",1,"Different","Different","Hit"
"D,11,GJ","D","11","GJ","Native","12","1","2","Pa2-Pa4","4704.49",1,"Same","Same","CR"
"D,11,GJ","D","11","GJ","Native","11","1","1","Pha1-Pha2","4231.38",1,"Same","Same","CR"
"D,11,GJ","D","11","GJ","Native","13","1","3","Pha1-Pa2","3631.73",1,"Different","Different","Hit"
"D,10,SC","D","10","SC","Native","32","3","2","Pa4-Pa5","4633.30",1,"Same","Same","CR"
"D,10,SC","D","10","SC","Native","31","3","1","Pha2-Pha5","3266.57",1,"Same","Same","CR"
"D,10,SC","D","10","SC","Native","34","3","4","Pa2-Pha2","-9533.23",0,"Different","Same","Miss"
"D,10,SC","D","10","SC","Native","33","3","3","Pha5-Pa5","-5855.08",0,"Different","Same","Miss"
"D,10,SC","D","10","SC","Native","43","4","3","Pha1-Pa4","5602.46",1,"Different","Different","Hit"
"D,10,SC","D","10","SC","Native","41","4","1","Pha2-Pha1","3241.76",1,"Same","Same","CR"
"D,10,SC","D","10","SC","Native","42","4","2","Pa4-Pa2","3107.17",1,"Same","Same","CR"
"D,10,SC","D","10","SC","Native","44","4","4","Pa5-Pha1","4189.22",1,"Different","Different","Hit"
"D,10,SC","D","10","SC","Native","23","2","3","Pha2-Pa4","3698.72",1,"Different","Different","Hit"
"D,10,SC","D","10","SC","Native","21","2","1","Pha5-Pha1","3225.06",1,"Same","Same","CR"
"D,10,SC","D","10","SC","Native","24","2","4","Pa4-Pha1","4582.53",1,"Different","Different","Hit"
"D,10,SC","D","10","SC","Native","22","2","2","Pa5-Pa2","3252.40",1,"Same","Same","CR"
"D,10,SC","D","10","SC","Native","14","1","4","Pa2-Pha5","5119.21",1,"Different","Different","Hit"
"D,10,SC","D","10","SC","Native","11","1","1","Pha1-Pha2","2869.51",1,"Same","Same","CR"
"D,10,SC","D","10","SC","Native","12","1","2","Pa2-Pa4","-2774.09",0,"Same","Different","False+"
"D,10,SC","D","10","SC","Native","13","1","3","Pha1-Pa2","3502.27",1,"Different","Different","Hit"
"D,14,AC","D","14","AC","Native","32","3","2","Pa4-Pa5","3829.44",1,"Same","Same","CR"
"D,14,AC","D","14","AC","Native","34","3","4","Pa2-Pha2","3410.65",1,"Different","Different","Hit"
"D,14,AC","D","14","AC","Native","31","3","1","Pha2-Pha5","3179.58",1,"Same","Same","CR"
"D,14,AC","D","14","AC","Native","33","3","3","Pha5-Pa5","3334.49",1,"Different","Different","Hit"
"D,14,AC","D","14","AC","Native","42","4","2","Pa4-Pa2","3032.00",1,"Same","Same","CR"
"D,14,AC","D","14","AC","Native","44","4","4","Pa5-Pha1","3232.55",1,"Different","Different","Hit"
"D,14,AC","D","14","AC","Native","41","4","1","Pha2-Pha1","3209.78",1,"Same","Same","CR"
"D,14,AC","D","14","AC","Native","43","4","3","Pha1-Pa4","3391.00",1,"Different","Different","Hit"
"D,14,AC","D","14","AC","Native","14","1","4","Pa2-Pha5","2996.11",1,"Different","Different","Hit"
"D,14,AC","D","14","AC","Native","13","1","3","Pha1-Pa2","3435.98",1,"Different","Different","Hit"
"D,14,AC","D","14","AC","Native","11","1","1","Pha1-Pha2","3321.15",1,"Same","Same","CR"
"D,14,AC","D","14","AC","Native","12","1","2","Pa2-Pa4","3621.73",1,"Same","Same","CR"
"D,14,AC","D","14","AC","Native","23","2","3","Pha2-Pa4","2902.05",1,"Different","Different","Hit"
"D,14,AC","D","14","AC","Native","21","2","1","Pha5-Pha1","3090.24",1,"Same","Same","CR"
"D,14,AC","D","14","AC","Native","22","2","2","Pa5-Pa2","2857.83",1,"Same","Same","CR"
"D,14,AC","D","14","AC","Native","24","2","4","Pa4-Pha1","2950.29",1,"Different","Different","Hit"
"C,2,MC","C","2","MC","Native","44","4","4","Pa5-Pha1","3793.33",1,"Different","Different","Hit"
"C,2,MC","C","2","MC","Native","42","4","2","Pa4-Pa2","3348.62",1,"Same","Same","CR"
"C,2,MC","C","2","MC","Native","43","4","3","Pha1-Pa4","2921.76",1,"Different","Different","Hit"
"C,2,MC","C","2","MC","Native","41","4","1","Pha2-Pha1","3012.21",1,"Same","Same","CR"
"C,2,MC","C","2","MC","Native","23","2","3","Pha2-Pa4","3314.79",1,"Different","Different","Hit"
"C,2,MC","C","2","MC","Native","24","2","4","Pa4-Pha1","3162.17",1,"Different","Different","Hit"
"C,2,MC","C","2","MC","Native","21","2","1","Pha5-Pha1","3038.11",1,"Same","Same","CR"
"C,2,MC","C","2","MC","Native","22","2","2","Pa5-Pa2","3137.63",1,"Same","Same","CR"
"C,2,MC","C","2","MC","Native","12","1","2","Pa2-Pa4","3130.62",1,"Same","Same","CR"
"C,2,MC","C","2","MC","Native","13","1","3","Pha1-Pa2","3363.11",1,"Different","Different","Hit"
"C,2,MC","C","2","MC","Native","11","1","1","Pha1-Pha2","3452.95",1,"Same","Same","CR"
"C,2,MC","C","2","MC","Native","14","1","4","Pa2-Pha5","3438.34",1,"Different","Different","Hit"
"C,2,MC","C","2","MC","Native","31","3","1","Pha2-Pha5","4115.24",1,"Same","Same","CR"
"C,2,MC","C","2","MC","Native","34","3","4","Pa2-Pha2","3071.13",1,"Different","Different","Hit"
"C,2,MC","C","2","MC","Native","33","3","3","Pha5-Pa5","3344.18",1,"Different","Different","Hit"
"C,2,MC","C","2","MC","Native","32","3","2","Pa4-Pa5","3085.94",1,"Same","Same","CR"
"C,5,RT","C","5","RT","Native","21","2","1","Pha5-Pha1","4082.65",1,"Same","Same","CR"
"C,5,RT","C","5","RT","Native","24","2","4","Pa4-Pha1","3714.54",1,"Different","Different","Hit"
"C,5,RT","C","5","RT","Native","23","2","3","Pha2-Pa4","3504.02",1,"Different","Different","Hit"
"C,5,RT","C","5","RT","Native","22","2","2","Pa5-Pa2","3586.27",1,"Same","Same","CR"
"C,5,RT","C","5","RT","Native","44","4","4","Pa5-Pha1","3399.11",1,"Different","Different","Hit"
"C,5,RT","C","5","RT","Native","42","4","2","Pa4-Pa2","3134.20",1,"Same","Same","CR"
"C,5,RT","C","5","RT","Native","43","4","3","Pha1-Pa4","3140.45",1,"Different","Different","Hit"
"C,5,RT","C","5","RT","Native","41","4","1","Pha2-Pha1","3690.08",1,"Same","Same","CR"
"C,5,RT","C","5","RT","Native","32","3","2","Pa4-Pa5","3253.04",1,"Same","Same","CR"
"C,5,RT","C","5","RT","Native","34","3","4","Pa2-Pha2","3243.90",1,"Different","Different","Hit"
"C,5,RT","C","5","RT","Native","33","3","3","Pha5-Pa5","3304.93",1,"Different","Different","Hit"
"C,5,RT","C","5","RT","Native","31","3","1","Pha2-Pha5","3316.33",1,"Same","Same","CR"
"C,5,RT","C","5","RT","Native","14","1","4","Pa2-Pha5","3408.50",1,"Different","Different","Hit"
"C,5,RT","C","5","RT","Native","12","1","2","Pa2-Pa4","4427.24",1,"Same","Same","CR"
"C,5,RT","C","5","RT","Native","13","1","3","Pha1-Pa2","3746.15",1,"Different","Different","Hit"
"C,5,RT","C","5","RT","Native","11","1","1","Pha1-Pha2","4139.80",1,"Same","Same","CR"
"C,9,ST","C","9","ST","Native","14","1","4","Pa2-Pha5","3790.07",1,"Different","Different","Hit"
"C,9,ST","C","9","ST","Native","11","1","1","Pha1-Pha2","3661.96",1,"Same","Same","CR"
"C,9,ST","C","9","ST","Native","12","1","2","Pa2-Pa4","3120.32",1,"Same","Same","CR"
"C,9,ST","C","9","ST","Native","13","1","3","Pha1-Pa2","-2591.52",0,"Different","Same","Miss"
"C,9,ST","C","9","ST","Native","32","3","2","Pa4-Pa5","3044.71",1,"Same","Same","CR"
"C,9,ST","C","9","ST","Native","34","3","4","Pa2-Pha2","3388.23",1,"Different","Different","Hit"
"C,9,ST","C","9","ST","Native","31","3","1","Pha2-Pha5","3337.98",1,"Same","Same","CR"
"C,9,ST","C","9","ST","Native","33","3","3","Pha5-Pa5","3432.08",1,"Different","Different","Hit"
"C,9,ST","C","9","ST","Native","44","4","4","Pa5-Pha1","3345.77",1,"Different","Different","Hit"
"C,9,ST","C","9","ST","Native","41","4","1","Pha2-Pha1","3680.47",1,"Same","Same","CR"
"C,9,ST","C","9","ST","Native","42","4","2","Pa4-Pa2","3026.22",1,"Same","Same","CR"
"C,9,ST","C","9","ST","Native","43","4","3","Pha1-Pa4","3138.63",1,"Different","Different","Hit"
"C,9,ST","C","9","ST","Native","22","2","2","Pa5-Pa2","3079.22",1,"Same","Same","CR"
"C,9,ST","C","9","ST","Native","23","2","3","Pha2-Pa4","3088.11",1,"Different","Different","Hit"
"C,9,ST","C","9","ST","Native","24","2","4","Pa4-Pha1","3014.17",1,"Different","Different","Hit"
"C,9,ST","C","9","ST","Native","21","2","1","Pha5-Pha1","-236.14",0,"Same","Different","False+"
"C,10,EG","C","10","EG","Native","42","4","2","Pa4-Pa2","3324.22",1,"Same","Same","CR"
"C,10,EG","C","10","EG","Native","44","4","4","Pa5-Pha1","3660.44",1,"Different","Different","Hit"
"C,10,EG","C","10","EG","Native","43","4","3","Pha1-Pa4","3609.15",1,"Different","Different","Hit"
"C,10,EG","C","10","EG","Native","41","4","1","Pha2-Pha1","3006.83",1,"Same","Same","CR"
"C,10,EG","C","10","EG","Native","32","3","2","Pa4-Pa5","3062.01",1,"Same","Same","CR"
"C,10,EG","C","10","EG","Native","33","3","3","Pha5-Pa5","3181.78",1,"Different","Different","Hit"
"C,10,EG","C","10","EG","Native","34","3","4","Pa2-Pha2","3165.48",1,"Different","Different","Hit"
"C,10,EG","C","10","EG","Native","31","3","1","Pha2-Pha5","3093.23",1,"Same","Same","CR"
"C,10,EG","C","10","EG","Native","23","2","3","Pha2-Pa4","3236.43",1,"Different","Different","Hit"
"C,10,EG","C","10","EG","Native","21","2","1","Pha5-Pha1","4400.05",1,"Same","Same","CR"
"C,10,EG","C","10","EG","Native","24","2","4","Pa4-Pha1","3219.94",1,"Different","Different","Hit"
"C,10,EG","C","10","EG","Native","22","2","2","Pa5-Pa2","3191.80",1,"Same","Same","CR"
"C,10,EG","C","10","EG","Native","13","1","3","Pha1-Pa2","3222.19",1,"Different","Different","Hit"
"C,10,EG","C","10","EG","Native","12","1","2","Pa2-Pa4","3130.58",1,"Same","Same","CR"
"C,10,EG","C","10","EG","Native","14","1","4","Pa2-Pha5","3430.44",1,"Different","Different","Hit"
"C,10,EG","C","10","EG","Native","11","1","1","Pha1-Pha2","3244.54",1,"Same","Same","CR"
"C,13,CO","C","13","CO","Native","32","3","2","Pa4-Pa5","4267.23",1,"Same","Same","CR"
"C,13,CO","C","13","CO","Native","33","3","3","Pha5-Pa5","3349.14",1,"Different","Different","Hit"
"C,13,CO","C","13","CO","Native","31","3","1","Pha2-Pha5","3074.98",1,"Same","Same","CR"
"C,13,CO","C","13","CO","Native","34","3","4","Pa2-Pha2","3223.15",1,"Different","Different","Hit"
"C,13,CO","C","13","CO","Native","44","4","4","Pa5-Pha1","3765.06",1,"Different","Different","Hit"
"C,13,CO","C","13","CO","Native","41","4","1","Pha2-Pha1","3413.81",1,"Same","Same","CR"
"C,13,CO","C","13","CO","Native","43","4","3","Pha1-Pa4","3320.92",1,"Different","Different","Hit"
"C,13,CO","C","13","CO","Native","42","4","2","Pa4-Pa2","3383.06",1,"Same","Same","CR"
"C,13,CO","C","13","CO","Native","11","1","1","Pha1-Pha2","3133.66",1,"Same","Same","CR"
"C,13,CO","C","13","CO","Native","12","1","2","Pa2-Pa4","3429.95",1,"Same","Same","CR"
"C,13,CO","C","13","CO","Native","13","1","3","Pha1-Pa2","3145.94",1,"Different","Different","Hit"
"C,13,CO","C","13","CO","Native","14","1","4","Pa2-Pha5","3575.62",1,"Different","Different","Hit"
"C,13,CO","C","13","CO","Native","24","2","4","Pa4-Pha1","3542.25",1,"Different","Different","Hit"
"C,13,CO","C","13","CO","Native","23","2","3","Pha2-Pa4","3400.68",1,"Different","Different","Hit"
"C,13,CO","C","13","CO","Native","22","2","2","Pa5-Pa2","2999.18",1,"Same","Same","CR"
"C,13,CO","C","13","CO","Native","21","2","1","Pha5-Pha1","3920.75",1,"Same","Same","CR"
"C,14,AO","C","14","AO","Native","32","3","2","Pa4-Pa5","3549.92",1,"Same","Same","CR"
"C,14,AO","C","14","AO","Native","31","3","1","Pha2-Pha5","3581.23",1,"Same","Same","CR"
"C,14,AO","C","14","AO","Native","34","3","4","Pa2-Pha2","3427.28",1,"Different","Different","Hit"
"C,14,AO","C","14","AO","Native","33","3","3","Pha5-Pa5","3698.65",1,"Different","Different","Hit"
"C,14,AO","C","14","AO","Native","12","1","2","Pa2-Pa4","3148.01",1,"Same","Same","CR"
"C,14,AO","C","14","AO","Native","13","1","3","Pha1-Pa2","3296.48",1,"Different","Different","Hit"
"C,14,AO","C","14","AO","Native","11","1","1","Pha1-Pha2","3268.14",1,"Same","Same","CR"
"C,14,AO","C","14","AO","Native","14","1","4","Pa2-Pha5","3659.73",1,"Different","Different","Hit"
"C,14,AO","C","14","AO","Native","24","2","4","Pa4-Pha1","3678.97",1,"Different","Different","Hit"
"C,14,AO","C","14","AO","Native","23","2","3","Pha2-Pa4","6097.01",1,"Different","Different","Hit"
"C,14,AO","C","14","AO","Native","21","2","1","Pha5-Pha1","3406.70",1,"Same","Same","CR"
"C,14,AO","C","14","AO","Native","22","2","2","Pa5-Pa2","3514.12",1,"Same","Same","CR"
"C,14,AO","C","14","AO","Native","41","4","1","Pha2-Pha1","3658.62",1,"Same","Same","CR"
"C,14,AO","C","14","AO","Native","44","4","4","Pa5-Pha1","4198.24",1,"Different","Different","Hit"
"C,14,AO","C","14","AO","Native","42","4","2","Pa4-Pa2","3706.88",1,"Same","Same","CR"
"C,14,AO","C","14","AO","Native","43","4","3","Pha1-Pa4","4414.77",1,"Different","Different","Hit"
"C,7,DD","C","7","DD","Native","42","4","2","Pa4-Pa2","3846.76",1,"Same","Same","CR"
"C,7,DD","C","7","DD","Native","44","4","4","Pa5-Pha1","3933.01",1,"Different","Different","Hit"
"C,7,DD","C","7","DD","Native","41","4","1","Pha2-Pha1","3779.46",1,"Same","Same","CR"
"C,7,DD","C","7","DD","Native","43","4","3","Pha1-Pa4","3992.05",1,"Different","Different","Hit"
"C,7,DD","C","7","DD","Native","11","1","1","Pha1-Pha2","3164.47",1,"Same","Same","CR"
"C,7,DD","C","7","DD","Native","12","1","2","Pa2-Pa4","4646.90",1,"Same","Same","CR"
"C,7,DD","C","7","DD","Native","13","1","3","Pha1-Pa2","3418.95",1,"Different","Different","Hit"
"C,7,DD","C","7","DD","Native","14","1","4","Pa2-Pha5","4181.25",1,"Different","Different","Hit"
"C,7,DD","C","7","DD","Native","33","3","3","Pha5-Pa5","3385.66",1,"Different","Different","Hit"
"C,7,DD","C","7","DD","Native","34","3","4","Pa2-Pha2","3403.01",1,"Different","Different","Hit"
"C,7,DD","C","7","DD","Native","32","3","2","Pa4-Pa5","2973.79",1,"Same","Same","CR"
"C,7,DD","C","7","DD","Native","31","3","1","Pha2-Pha5","3250.25",1,"Same","Same","CR"
"C,7,DD","C","7","DD","Native","21","2","1","Pha5-Pha1","3206.41",1,"Same","Same","CR"
"C,7,DD","C","7","DD","Native","23","2","3","Pha2-Pa4","3221.18",1,"Different","Different","Hit"
"C,7,DD","C","7","DD","Native","24","2","4","Pa4-Pha1","3447.29",1,"Different","Different","Hit"
"C,7,DD","C","7","DD","Native","22","2","2","Pa5-Pa2","3518.02",1,"Same","Same","CR"
"C,15,MD","C","15","MD","Native","41","4","1","Pha2-Pha1","3529.61",1,"Same","Same","CR"
"C,15,MD","C","15","MD","Native","44","4","4","Pa5-Pha1","4687.42",1,"Different","Different","Hit"
"C,15,MD","C","15","MD","Native","42","4","2","Pa4-Pa2","3533.37",1,"Same","Same","CR"
"C,15,MD","C","15","MD","Native","43","4","3","Pha1-Pa4","3462.16",1,"Different","Different","Hit"
"C,15,MD","C","15","MD","Native","33","3","3","Pha5-Pa5","3494.88",1,"Different","Different","Hit"
"C,15,MD","C","15","MD","Native","31","3","1","Pha2-Pha5","3795.56",1,"Same","Same","CR"
"C,15,MD","C","15","MD","Native","32","3","2","Pa4-Pa5","3356.05",1,"Same","Same","CR"
"C,15,MD","C","15","MD","Native","34","3","4","Pa2-Pha2","3816.42",1,"Different","Different","Hit"
"C,15,MD","C","15","MD","Native","24","2","4","Pa4-Pha1","5176.02",1,"Different","Different","Hit"
"C,15,MD","C","15","MD","Native","21","2","1","Pha5-Pha1","3216.62",1,"Same","Same","CR"
"C,15,MD","C","15","MD","Native","23","2","3","Pha2-Pa4","3711.87",1,"Different","Different","Hit"
"C,15,MD","C","15","MD","Native","22","2","2","Pa5-Pa2","4105.78",1,"Same","Same","CR"
"C,15,MD","C","15","MD","Native","12","1","2","Pa2-Pa4","3784.05",1,"Same","Same","CR"
"C,15,MD","C","15","MD","Native","13","1","3","Pha1-Pa2","3716.41",1,"Different","Different","Hit"
"C,15,MD","C","15","MD","Native","11","1","1","Pha1-Pha2","3738.26",1,"Same","Same","CR"
"C,15,MD","C","15","MD","Native","14","1","4","Pa2-Pha5","3288.94",1,"Different","Different","Hit"
"C,12,CP","C","12","CP","Native","41","4","1","Pha2-Pha1","3510.85",1,"Same","Same","CR"
"C,12,CP","C","12","CP","Native","43","4","3","Pha1-Pa4","3428.02",1,"Different","Different","Hit"
"C,12,CP","C","12","CP","Native","44","4","4","Pa5-Pha1","3614.00",1,"Different","Different","Hit"
"C,12,CP","C","12","CP","Native","42","4","2","Pa4-Pa2","3348.40",1,"Same","Same","CR"
"C,12,CP","C","12","CP","Native","12","1","2","Pa2-Pa4","3514.26",1,"Same","Same","CR"
"C,12,CP","C","12","CP","Native","13","1","3","Pha1-Pa2","3478.36",1,"Different","Different","Hit"
"C,12,CP","C","12","CP","Native","14","1","4","Pa2-Pha5","3372.45",1,"Different","Different","Hit"
"C,12,CP","C","12","CP","Native","11","1","1","Pha1-Pha2","-4206.20",0,"Same","Different","False+"
"C,12,CP","C","12","CP","Native","33","3","3","Pha5-Pa5","3667.42",1,"Different","Different","Hit"
"C,12,CP","C","12","CP","Native","32","3","2","Pa4-Pa5","3311.83",1,"Same","Same","CR"
"C,12,CP","C","12","CP","Native","31","3","1","Pha2-Pha5","3773.69",1,"Same","Same","CR"
"C,12,CP","C","12","CP","Native","34","3","4","Pa2-Pha2","3423.65",1,"Different","Different","Hit"
"C,12,CP","C","12","CP","Native","24","2","4","Pa4-Pha1","3338.82",1,"Different","Different","Hit"
"C,12,CP","C","12","CP","Native","22","2","2","Pa5-Pa2","3611.23",1,"Same","Same","CR"
"C,12,CP","C","12","CP","Native","23","2","3","Pha2-Pa4","3442.38",1,"Different","Different","Hit"
"C,12,CP","C","12","CP","Native","21","2","1","Pha5-Pha1","3702.10",1,"Same","Same","CR"
"C,11,EP","C","11","EP","Native","11","1","1","Pha1-Pha2","4391.76",1,"Same","Same","CR"
"C,11,EP","C","11","EP","Native","12","1","2","Pa2-Pa4","3844.49",1,"Same","Same","CR"
"C,11,EP","C","11","EP","Native","13","1","3","Pha1-Pa2","3733.00",1,"Different","Different","Hit"
"C,11,EP","C","11","EP","Native","14","1","4","Pa2-Pha5","3555.33",1,"Different","Different","Hit"
"C,11,EP","C","11","EP","Native","23","2","3","Pha2-Pa4","3592.40",1,"Different","Different","Hit"
"C,11,EP","C","11","EP","Native","21","2","1","Pha5-Pha1","3555.42",1,"Same","Same","CR"
"C,11,EP","C","11","EP","Native","22","2","2","Pa5-Pa2","3991.72",1,"Same","Same","CR"
"C,11,EP","C","11","EP","Native","24","2","4","Pa4-Pha1","3412.87",1,"Different","Different","Hit"
"C,11,EP","C","11","EP","Native","32","3","2","Pa4-Pa5","3743.00",1,"Same","Same","CR"
"C,11,EP","C","11","EP","Native","33","3","3","Pha5-Pa5","3336.97",1,"Different","Different","Hit"
"C,11,EP","C","11","EP","Native","31","3","1","Pha2-Pha5","4146.95",1,"Same","Same","CR"
"C,11,EP","C","11","EP","Native","34","3","4","Pa2-Pha2","3055.51",1,"Different","Different","Hit"
"C,11,EP","C","11","EP","Native","44","4","4","Pa5-Pha1","3180.89",1,"Different","Different","Hit"
"C,11,EP","C","11","EP","Native","42","4","2","Pa4-Pa2","3694.78",1,"Same","Same","CR"
"C,11,EP","C","11","EP","Native","41","4","1","Pha2-Pha1","3917.11",1,"Same","Same","CR"
"C,11,EP","C","11","EP","Native","43","4","3","Pha1-Pa4","3558.44",1,"Different","Different","Hit"
"C,1,EB","C","1","EB","NonNative","14","1","4","Ba5-Pa4","-3625.00",0,"Different","Same","Miss"
"C,1,EB","C","1","EB","NonNative","13","1","3","Pa2-Ba2","-5651.14",0,"Different","Same","Miss"
"C,1,EB","C","1","EB","NonNative","12","1","2","Ba2-Ba3","-3429.06",0,"Same","Different","False+"
"C,1,EB","C","1","EB","NonNative","11","1","1","Pa2-Pa4","3450.84",1,"Same","Same","CR"
"C,1,EB","C","1","EB","NonNative","42","4","2","Ba5-Ba3","-3304.74",0,"Same","Different","False+"
"C,1,EB","C","1","EB","NonNative","44","4","4","Ba3-Pa4","-3236.78",0,"Different","Same","Miss"
"C,1,EB","C","1","EB","NonNative","43","4","3","Pa2-Ba3","3305.99",1,"Different","Different","Hit"
"C,1,EB","C","1","EB","NonNative","41","4","1","Pa5-Pa4","3050.32",1,"Same","Same","CR"
"C,1,EB","C","1","EB","NonNative","23","2","3","Pa4-Ba3","3773.54",1,"Different","Different","Hit"
"C,1,EB","C","1","EB","NonNative","24","2","4","Ba3-Pa4","3978.04",1,"Different","Different","Hit"
"C,1,EB","C","1","EB","NonNative","21","2","1","Pa5-Pa2","16317.57",1,"Same","Same","CR"
"C,1,EB","C","1","EB","NonNative","22","2","2","Ba5-Ba2","4544.16",1,"Same","Same","CR"
"C,1,EB","C","1","EB","NonNative","31","3","1","Pa4-Pa2","3357.38",1,"Same","Same","CR"
"C,1,EB","C","1","EB","NonNative","32","3","2","Ba3-Ba2","-3551.36",0,"Same","Different","False+"
"C,1,EB","C","1","EB","NonNative","34","3","4","Ba2-Pa2","-3173.14",0,"Different","Same","Miss"
"C,1,EB","C","1","EB","NonNative","33","3","3","Pa5-Ba5","3861.44",1,"Different","Different","Hit"
"D,1,ZL","D","1","ZL","NonNative","44","4","4","Ba3-Pa4","4165.41",1,"Different","Different","Hit"
"D,1,ZL","D","1","ZL","NonNative","41","4","1","Pa5-Pa4","3126.88",1,"Same","Same","CR"
"D,1,ZL","D","1","ZL","NonNative","42","4","2","Ba5-Ba3","3274.06",1,"Same","Same","CR"
"D,1,ZL","D","1","ZL","NonNative","43","4","3","Pa2-Ba3","3631.98",1,"Different","Different","Hit"
"D,1,ZL","D","1","ZL","NonNative","12","1","2","Ba2-Ba3","3365.90",1,"Same","Same","CR"
"D,1,ZL","D","1","ZL","NonNative","14","1","4","Ba5-Pa4","4555.33",1,"Different","Different","Hit"
"D,1,ZL","D","1","ZL","NonNative","13","1","3","Pa2-Ba2","3577.44",1,"Different","Different","Hit"
"D,1,ZL","D","1","ZL","NonNative","11","1","1","Pa2-Pa4","3724.00",1,"Same","Same","CR"
"D,1,ZL","D","1","ZL","NonNative","33","3","3","Pa5-Ba5","4198.85",1,"Different","Different","Hit"
"D,1,ZL","D","1","ZL","NonNative","34","3","4","Ba2-Pa2","3650.62",1,"Different","Different","Hit"
"D,1,ZL","D","1","ZL","NonNative","31","3","1","Pa4-Pa2","3030.66",1,"Same","Same","CR"
"D,1,ZL","D","1","ZL","NonNative","32","3","2","Ba3-Ba2","5169.08",1,"Same","Same","CR"
"D,1,ZL","D","1","ZL","NonNative","21","2","1","Pa5-Pa2","3228.90",1,"Same","Same","CR"
"D,1,ZL","D","1","ZL","NonNative","22","2","2","Ba5-Ba2","3596.92",1,"Same","Same","CR"
"D,1,ZL","D","1","ZL","NonNative","23","2","3","Pa4-Ba3","3027.66",1,"Different","Different","Hit"
"D,1,ZL","D","1","ZL","NonNative","24","2","4","Ba3-Pa4","3457.70",1,"Different","Different","Hit"
"D,2,IL","D","2","IL","NonNative","31","3","1","Pa4-Pa2","3437.96",1,"Same","Same","CR"
"D,2,IL","D","2","IL","NonNative","34","3","4","Ba2-Pa2","-4284.62",0,"Different","Same","Miss"
"D,2,IL","D","2","IL","NonNative","33","3","3","Pa5-Ba5","3703.66",1,"Different","Different","Hit"
"D,2,IL","D","2","IL","NonNative","32","3","2","Ba3-Ba2","-5547.46",0,"Same","Different","False+"
"D,2,IL","D","2","IL","NonNative","41","4","1","Pa5-Pa4","3853.91",1,"Same","Same","CR"
"D,2,IL","D","2","IL","NonNative","42","4","2","Ba5-Ba3","4513.92",1,"Same","Same","CR"
"D,2,IL","D","2","IL","NonNative","43","4","3","Pa2-Ba3","-4839.40",0,"Different","Same","Miss"
"D,2,IL","D","2","IL","NonNative","44","4","4","Ba3-Pa4","4534.54",1,"Different","Different","Hit"
"D,2,IL","D","2","IL","NonNative","24","2","4","Ba3-Pa4","-5741.15",0,"Different","Same","Miss"
"D,2,IL","D","2","IL","NonNative","22","2","2","Ba5-Ba2","-4506.43",0,"Same","Different","False+"
"D,2,IL","D","2","IL","NonNative","21","2","1","Pa5-Pa2","-4161.41",0,"Same","Different","False+"
"D,2,IL","D","2","IL","NonNative","23","2","3","Pa4-Ba3","-4282.11",0,"Different","Same","Miss"
"D,2,IL","D","2","IL","NonNative","12","1","2","Ba2-Ba3","5489.56",1,"Same","Same","CR"
"D,2,IL","D","2","IL","NonNative","13","1","3","Pa2-Ba2","3356.71",1,"Different","Different","Hit"
"D,2,IL","D","2","IL","NonNative","14","1","4","Ba5-Pa4","-4611.29",0,"Different","Same","Miss"
"D,2,IL","D","2","IL","NonNative","11","1","1","Pa2-Pa4","-4218.58",0,"Same","Different","False+"
"D,3,FM","D","3","FM","NonNative","43","4","3","Pa2-Ba3","3938.95",1,"Different","Different","Hit"
"D,3,FM","D","3","FM","NonNative","44","4","4","Ba3-Pa4","-3246.10",0,"Different","Same","Miss"
"D,3,FM","D","3","FM","NonNative","41","4","1","Pa5-Pa4","3101.95",1,"Same","Same","CR"
"D,3,FM","D","3","FM","NonNative","42","4","2","Ba5-Ba3","3193.97",1,"Same","Same","CR"
"D,3,FM","D","3","FM","NonNative","22","2","2","Ba5-Ba2","3770.94",1,"Same","Same","CR"
"D,3,FM","D","3","FM","NonNative","23","2","3","Pa4-Ba3","-4455.10",0,"Different","Same","Miss"
"D,3,FM","D","3","FM","NonNative","24","2","4","Ba3-Pa4","-3385.75",0,"Different","Same","Miss"
"D,3,FM","D","3","FM","NonNative","21","2","1","Pa5-Pa2","-3429.57",0,"Same","Different","False+"
"D,3,FM","D","3","FM","NonNative","11","1","1","Pa2-Pa4","4984.57",1,"Same","Same","CR"
"D,3,FM","D","3","FM","NonNative","12","1","2","Ba2-Ba3","4054.90",1,"Same","Same","CR"
"D,3,FM","D","3","FM","NonNative","14","1","4","Ba5-Pa4","-3838.09",0,"Different","Same","Miss"
"D,3,FM","D","3","FM","NonNative","13","1","3","Pa2-Ba2","3212.99",1,"Different","Different","Hit"
"D,3,FM","D","3","FM","NonNative","31","3","1","Pa4-Pa2","3055.27",1,"Same","Same","CR"
"D,3,FM","D","3","FM","NonNative","32","3","2","Ba3-Ba2","-3134.02",0,"Same","Different","False+"
"D,3,FM","D","3","FM","NonNative","33","3","3","Pa5-Ba5","3578.62",1,"Different","Different","Hit"
"D,3,FM","D","3","FM","NonNative","34","3","4","Ba2-Pa2","3878.93",1,"Different","Different","Hit"
"D,4,IM","D","4","IM","NonNative","31","3","1","Pa4-Pa2","3228.86",1,"Same","Same","CR"
"D,4,IM","D","4","IM","NonNative","33","3","3","Pa5-Ba5","-8090.90",0,"Different","Same","Miss"
"D,4,IM","D","4","IM","NonNative","32","3","2","Ba3-Ba2","4006.94",1,"Same","Same","CR"
"D,4,IM","D","4","IM","NonNative","34","3","4","Ba2-Pa2","-4434.31",0,"Different","Same","Miss"
"D,4,IM","D","4","IM","NonNative","42","4","2","Ba5-Ba3","3242.50",1,"Same","Same","CR"
"D,4,IM","D","4","IM","NonNative","43","4","3","Pa2-Ba3","-4201.64",0,"Different","Same","Miss"
"D,4,IM","D","4","IM","NonNative","41","4","1","Pa5-Pa4","7092.72",1,"Same","Same","CR"
"D,4,IM","D","4","IM","NonNative","44","4","4","Ba3-Pa4","-8484.94",0,"Different","Same","Miss"
"D,4,IM","D","4","IM","NonNative","13","1","3","Pa2-Ba2","-3424.98",0,"Different","Same","Miss"
"D,4,IM","D","4","IM","NonNative","12","1","2","Ba2-Ba3","3965.39",1,"Same","Same","CR"
"D,4,IM","D","4","IM","NonNative","14","1","4","Ba5-Pa4","-6714.95",0,"Different","Same","Miss"
"D,4,IM","D","4","IM","NonNative","11","1","1","Pa2-Pa4","8986.45",1,"Same","Same","CR"
"D,4,IM","D","4","IM","NonNative","24","2","4","Ba3-Pa4","-8525.04",0,"Different","Same","Miss"
"D,4,IM","D","4","IM","NonNative","21","2","1","Pa5-Pa2","3266.99",1,"Same","Same","CR"
"D,4,IM","D","4","IM","NonNative","23","2","3","Pa4-Ba3","-4597.36",0,"Different","Same","Miss"
"D,4,IM","D","4","IM","NonNative","22","2","2","Ba5-Ba2","6218.41",1,"Same","Same","CR"
"D,5,EM","D","5","EM","NonNative","44","4","4","Ba3-Pa4","5936.87",1,"Different","Different","Hit"
"D,5,EM","D","5","EM","NonNative","42","4","2","Ba5-Ba3","4032.38",1,"Same","Same","CR"
"D,5,EM","D","5","EM","NonNative","41","4","1","Pa5-Pa4","4164.09",1,"Same","Same","CR"
"D,5,EM","D","5","EM","NonNative","43","4","3","Pa2-Ba3","-5560.96",0,"Different","Same","Miss"
"D,5,EM","D","5","EM","NonNative","12","1","2","Ba2-Ba3","5256.50",1,"Same","Same","CR"
"D,5,EM","D","5","EM","NonNative","14","1","4","Ba5-Pa4","-4126.28",0,"Different","Same","Miss"
"D,5,EM","D","5","EM","NonNative","13","1","3","Pa2-Ba2","6359.00",1,"Different","Different","Hit"
"D,5,EM","D","5","EM","NonNative","11","1","1","Pa2-Pa4","3459.48",1,"Same","Same","CR"
"D,5,EM","D","5","EM","NonNative","32","3","2","Ba3-Ba2","4051.53",1,"Same","Same","CR"
"D,5,EM","D","5","EM","NonNative","33","3","3","Pa5-Ba5","-4031.66",0,"Different","Same","Miss"
"D,5,EM","D","5","EM","NonNative","31","3","1","Pa4-Pa2","3867.67",1,"Same","Same","CR"
"D,5,EM","D","5","EM","NonNative","34","3","4","Ba2-Pa2","3643.34",1,"Different","Different","Hit"
"D,5,EM","D","5","EM","NonNative","21","2","1","Pa5-Pa2","3905.27",1,"Same","Same","CR"
"D,5,EM","D","5","EM","NonNative","23","2","3","Pa4-Ba3","4963.07",1,"Different","Different","Hit"
"D,5,EM","D","5","EM","NonNative","22","2","2","Ba5-Ba2","4102.77",1,"Same","Same","CR"
"D,5,EM","D","5","EM","NonNative","24","2","4","Ba3-Pa4","3855.21",1,"Different","Different","Hit"
"D,6,PH","D","6","PH","NonNative","21","2","1","Pa5-Pa2","4399.27",1,"Same","Same","CR"
"D,6,PH","D","6","PH","NonNative","24","2","4","Ba3-Pa4","-3749.58",0,"Different","Same","Miss"
"D,6,PH","D","6","PH","NonNative","22","2","2","Ba5-Ba2","4038.29",1,"Same","Same","CR"
"D,6,PH","D","6","PH","NonNative","23","2","3","Pa4-Ba3","-4426.55",0,"Different","Same","Miss"
"D,6,PH","D","6","PH","NonNative","12","1","2","Ba2-Ba3","4845.24",1,"Same","Same","CR"
"D,6,PH","D","6","PH","NonNative","13","1","3","Pa2-Ba2","-5144.09",0,"Different","Same","Miss"
"D,6,PH","D","6","PH","NonNative","14","1","4","Ba5-Pa4","-7605.94",0,"Different","Same","Miss"
"D,6,PH","D","6","PH","NonNative","11","1","1","Pa2-Pa4","4890.00",1,"Same","Same","CR"
"D,6,PH","D","6","PH","NonNative","44","4","4","Ba3-Pa4","-4957.21",0,"Different","Same","Miss"
"D,6,PH","D","6","PH","NonNative","42","4","2","Ba5-Ba3","5310.57",1,"Same","Same","CR"
"D,6,PH","D","6","PH","NonNative","43","4","3","Pa2-Ba3","-4194.99",0,"Different","Same","Miss"
"D,6,PH","D","6","PH","NonNative","41","4","1","Pa5-Pa4","5581.31",1,"Same","Same","CR"
"D,6,PH","D","6","PH","NonNative","32","3","2","Ba3-Ba2","4579.97",1,"Same","Same","CR"
"D,6,PH","D","6","PH","NonNative","33","3","3","Pa5-Ba5","-5024.31",0,"Different","Same","Miss"
"D,6,PH","D","6","PH","NonNative","34","3","4","Ba2-Pa2","-4167.35",0,"Different","Same","Miss"
"D,6,PH","D","6","PH","NonNative","31","3","1","Pa4-Pa2","3561.87",1,"Same","Same","CR"
"D,13,MR","D","13","MR","NonNative","23","2","3","Pa4-Ba3","4533.76",1,"Different","Different","Hit"
"D,13,MR","D","13","MR","NonNative","22","2","2","Ba5-Ba2","3559.11",1,"Same","Same","CR"
"D,13,MR","D","13","MR","NonNative","21","2","1","Pa5-Pa2","3018.35",1,"Same","Same","CR"
"D,13,MR","D","13","MR","NonNative","24","2","4","Ba3-Pa4","-3144.47",0,"Different","Same","Miss"
"D,13,MR","D","13","MR","NonNative","14","1","4","Ba5-Pa4","-4183.50",0,"Different","Same","Miss"
"D,13,MR","D","13","MR","NonNative","12","1","2","Ba2-Ba3","3281.32",1,"Same","Same","CR"
"D,13,MR","D","13","MR","NonNative","11","1","1","Pa2-Pa4","3118.81",1,"Same","Same","CR"
"D,13,MR","D","13","MR","NonNative","13","1","3","Pa2-Ba2","3436.96",1,"Different","Different","Hit"
"D,13,MR","D","13","MR","NonNative","42","4","2","Ba5-Ba3","3165.26",1,"Same","Same","CR"
"D,13,MR","D","13","MR","NonNative","41","4","1","Pa5-Pa4","3123.13",1,"Same","Same","CR"
"D,13,MR","D","13","MR","NonNative","43","4","3","Pa2-Ba3","-3635.98",0,"Different","Same","Miss"
"D,13,MR","D","13","MR","NonNative","44","4","4","Ba3-Pa4","3272.62",1,"Different","Different","Hit"
"D,13,MR","D","13","MR","NonNative","31","3","1","Pa4-Pa2","3099.06",1,"Same","Same","CR"
"D,13,MR","D","13","MR","NonNative","33","3","3","Pa5-Ba5","3204.29",1,"Different","Different","Hit"
"D,13,MR","D","13","MR","NonNative","32","3","2","Ba3-Ba2","-4566.52",0,"Same","Different","False+"
"D,13,MR","D","13","MR","NonNative","34","3","4","Ba2-Pa2","3684.58",1,"Different","Different","Hit"
"C,3,TC","C","3","TC","NonNative","43","4","3","Pa2-Ba3","5656.65",1,"Different","Different","Hit"
"C,3,TC","C","3","TC","NonNative","42","4","2","Ba5-Ba3","4415.01",1,"Same","Same","CR"
"C,3,TC","C","3","TC","NonNative","44","4","4","Ba3-Pa4","9871.58",1,"Different","Different","Hit"
"C,3,TC","C","3","TC","NonNative","41","4","1","Pa5-Pa4","9586.80",1,"Same","Same","CR"
"C,3,TC","C","3","TC","NonNative","13","1","3","Pa2-Ba2","3932.54",1,"Different","Different","Hit"
"C,3,TC","C","3","TC","NonNative","11","1","1","Pa2-Pa4","-3961.31",0,"Same","Different","False+"
"C,3,TC","C","3","TC","NonNative","14","1","4","Ba5-Pa4","-4339.51",0,"Different","Same","Miss"
"C,3,TC","C","3","TC","NonNative","12","1","2","Ba2-Ba3","-11304.60",0,"Same","Different","False+"
"C,3,TC","C","3","TC","NonNative","31","3","1","Pa4-Pa2","3771.67",1,"Same","Same","CR"
"C,3,TC","C","3","TC","NonNative","32","3","2","Ba3-Ba2","-5497.97",0,"Same","Different","False+"
"C,3,TC","C","3","TC","NonNative","33","3","3","Pa5-Ba5","5925.95",1,"Different","Different","Hit"
"C,3,TC","C","3","TC","NonNative","34","3","4","Ba2-Pa2","-6033.63",0,"Different","Same","Miss"
"C,3,TC","C","3","TC","NonNative","21","2","1","Pa5-Pa2","4255.21",1,"Same","Same","CR"
"C,3,TC","C","3","TC","NonNative","23","2","3","Pa4-Ba3","3711.28",1,"Different","Different","Hit"
"C,3,TC","C","3","TC","NonNative","22","2","2","Ba5-Ba2","-8112.00",0,"Same","Different","False+"
"C,3,TC","C","3","TC","NonNative","24","2","4","Ba3-Pa4","6994.00",1,"Different","Different","Hit"
"C,4,MC","C","4","MC","NonNative","34","3","4","Ba2-Pa2","-3502.83",0,"Different","Same","Miss"
"C,4,MC","C","4","MC","NonNative","31","3","1","Pa4-Pa2","3478.82",1,"Same","Same","CR"
"C,4,MC","C","4","MC","NonNative","32","3","2","Ba3-Ba2","3767.61",1,"Same","Same","CR"
"C,4,MC","C","4","MC","NonNative","33","3","3","Pa5-Ba5","-3971.99",0,"Different","Same","Miss"
"C,4,MC","C","4","MC","NonNative","24","2","4","Ba3-Pa4","-4550.14",0,"Different","Same","Miss"
"C,4,MC","C","4","MC","NonNative","22","2","2","Ba5-Ba2","4030.87",1,"Same","Same","CR"
"C,4,MC","C","4","MC","NonNative","21","2","1","Pa5-Pa2","3439.05",1,"Same","Same","CR"
"C,4,MC","C","4","MC","NonNative","23","2","3","Pa4-Ba3","-3481.71",0,"Different","Same","Miss"
"C,4,MC","C","4","MC","NonNative","12","1","2","Ba2-Ba3","3653.47",1,"Same","Same","CR"
"C,4,MC","C","4","MC","NonNative","11","1","1","Pa2-Pa4","3414.70",1,"Same","Same","CR"
"C,4,MC","C","4","MC","NonNative","13","1","3","Pa2-Ba2","-5099.30",0,"Different","Same","Miss"
"C,4,MC","C","4","MC","NonNative","14","1","4","Ba5-Pa4","-3608.54",0,"Different","Same","Miss"
"C,4,MC","C","4","MC","NonNative","42","4","2","Ba5-Ba3","3654.59",1,"Same","Same","CR"
"C,4,MC","C","4","MC","NonNative","44","4","4","Ba3-Pa4","-3473.55",0,"Different","Same","Miss"
"C,4,MC","C","4","MC","NonNative","43","4","3","Pa2-Ba3","-3297.13",0,"Different","Same","Miss"
"C,4,MC","C","4","MC","NonNative","41","4","1","Pa5-Pa4","3320.90",1,"Same","Same","CR"
"D,7,BB","D","7","BB","NonNative","13","1","3","Pa2-Ba2","-4049.75",0,"Different","Same","Miss"
"D,7,BB","D","7","BB","NonNative","12","1","2","Ba2-Ba3","4100.25",1,"Same","Same","CR"
"D,7,BB","D","7","BB","NonNative","11","1","1","Pa2-Pa4","3486.09",1,"Same","Same","CR"
"D,7,BB","D","7","BB","NonNative","14","1","4","Ba5-Pa4","-3889.82",0,"Different","Same","Miss"
"D,7,BB","D","7","BB","NonNative","42","4","2","Ba5-Ba3","3775.72",1,"Same","Same","CR"
"D,7,BB","D","7","BB","NonNative","43","4","3","Pa2-Ba3","-3590.07",0,"Different","Same","Miss"
"D,7,BB","D","7","BB","NonNative","41","4","1","Pa5-Pa4","3664.60",1,"Same","Same","CR"
"D,7,BB","D","7","BB","NonNative","44","4","4","Ba3-Pa4","-4842.68",0,"Different","Same","Miss"
"D,7,BB","D","7","BB","NonNative","22","2","2","Ba5-Ba2","3281.16",1,"Same","Same","CR"
"D,7,BB","D","7","BB","NonNative","21","2","1","Pa5-Pa2","3460.10",1,"Same","Same","CR"
"D,7,BB","D","7","BB","NonNative","24","2","4","Ba3-Pa4","-3386.78",0,"Different","Same","Miss"
"D,7,BB","D","7","BB","NonNative","23","2","3","Pa4-Ba3","-3591.98",0,"Different","Same","Miss"
"D,7,BB","D","7","BB","NonNative","31","3","1","Pa4-Pa2","3263.63",1,"Same","Same","CR"
"D,7,BB","D","7","BB","NonNative","34","3","4","Ba2-Pa2","-3884.45",0,"Different","Same","Miss"
"D,7,BB","D","7","BB","NonNative","32","3","2","Ba3-Ba2","3967.73",1,"Same","Same","CR"
"D,7,BB","D","7","BB","NonNative","33","3","3","Pa5-Ba5","-3461.70",0,"Different","Same","Miss"
"D,8,JB","D","8","JB","NonNative","11","1","1","Pa2-Pa4","3312.59",1,"Same","Same","CR"
"D,8,JB","D","8","JB","NonNative","12","1","2","Ba2-Ba3","3232.06",1,"Same","Same","CR"
"D,8,JB","D","8","JB","NonNative","13","1","3","Pa2-Ba2","-3283.55",0,"Different","Same","Miss"
"D,8,JB","D","8","JB","NonNative","14","1","4","Ba5-Pa4","-3010.04",0,"Different","Same","Miss"
"D,8,JB","D","8","JB","NonNative","44","4","4","Ba3-Pa4","-3098.22",0,"Different","Same","Miss"
"D,8,JB","D","8","JB","NonNative","43","4","3","Pa2-Ba3","-3074.74",0,"Different","Same","Miss"
"D,8,JB","D","8","JB","NonNative","42","4","2","Ba5-Ba3","4179.16",1,"Same","Same","CR"
"D,8,JB","D","8","JB","NonNative","41","4","1","Pa5-Pa4","2997.80",1,"Same","Same","CR"
"D,8,JB","D","8","JB","NonNative","22","2","2","Ba5-Ba2","-3593.36",0,"Same","Different","False+"
"D,8,JB","D","8","JB","NonNative","23","2","3","Pa4-Ba3","-3457.70",0,"Different","Same","Miss"
"D,8,JB","D","8","JB","NonNative","24","2","4","Ba3-Pa4","-3726.77",0,"Different","Same","Miss"
"D,8,JB","D","8","JB","NonNative","21","2","1","Pa5-Pa2","3578.44",1,"Same","Same","CR"
"D,8,JB","D","8","JB","NonNative","33","3","3","Pa5-Ba5","-2937.58",0,"Different","Same","Miss"
"D,8,JB","D","8","JB","NonNative","34","3","4","Ba2-Pa2","-3878.04",0,"Different","Same","Miss"
"D,8,JB","D","8","JB","NonNative","32","3","2","Ba3-Ba2","-3562.38",0,"Same","Different","False+"
"D,8,JB","D","8","JB","NonNative","31","3","1","Pa4-Pa2","2649.54",1,"Same","Same","CR"
"D,9,EB","D","9","EB","NonNative","14","1","4","Ba5-Pa4","3867.90",1,"Different","Different","Hit"
"D,9,EB","D","9","EB","NonNative","12","1","2","Ba2-Ba3","3835.17",1,"Same","Same","CR"
"D,9,EB","D","9","EB","NonNative","11","1","1","Pa2-Pa4","3399.93",1,"Same","Same","CR"
"D,9,EB","D","9","EB","NonNative","13","1","3","Pa2-Ba2","3662.95",1,"Different","Different","Hit"
"D,9,EB","D","9","EB","NonNative","43","4","3","Pa2-Ba3","3832.58",1,"Different","Different","Hit"
"D,9,EB","D","9","EB","NonNative","42","4","2","Ba5-Ba3","3686.32",1,"Same","Same","CR"
"D,9,EB","D","9","EB","NonNative","41","4","1","Pa5-Pa4","5062.25",1,"Same","Same","CR"
"D,9,EB","D","9","EB","NonNative","44","4","4","Ba3-Pa4","3233.00",1,"Different","Different","Hit"
"D,9,EB","D","9","EB","NonNative","31","3","1","Pa4-Pa2","4070.78",1,"Same","Same","CR"
"D,9,EB","D","9","EB","NonNative","33","3","3","Pa5-Ba5","3799.65",1,"Different","Different","Hit"
"D,9,EB","D","9","EB","NonNative","34","3","4","Ba2-Pa2","2907.58",1,"Different","Different","Hit"
"D,9,EB","D","9","EB","NonNative","32","3","2","Ba3-Ba2","-3604.70",0,"Same","Different","False+"
"D,9,EB","D","9","EB","NonNative","22","2","2","Ba5-Ba2","3102.03",1,"Same","Same","CR"
"D,9,EB","D","9","EB","NonNative","21","2","1","Pa5-Pa2","3828.38",1,"Same","Same","CR"
"D,9,EB","D","9","EB","NonNative","23","2","3","Pa4-Ba3","2929.98",1,"Different","Different","Hit"
"D,9,EB","D","9","EB","NonNative","24","2","4","Ba3-Pa4","3817.46",1,"Different","Different","Hit"
"C,8,OH","C","8","OH","NonNative","42","4","2","Ba5-Ba3","4308.46",1,"Same","Same","CR"
"C,8,OH","C","8","OH","NonNative","41","4","1","Pa5-Pa4","3319.09",1,"Same","Same","CR"
"C,8,OH","C","8","OH","NonNative","44","4","4","Ba3-Pa4","-3248.98",0,"Different","Same","Miss"
"C,8,OH","C","8","OH","NonNative","43","4","3","Pa2-Ba3","-3153.53",0,"Different","Same","Miss"
"C,8,OH","C","8","OH","NonNative","13","1","3","Pa2-Ba2","-3136.39",0,"Different","Same","Miss"
"C,8,OH","C","8","OH","NonNative","11","1","1","Pa2-Pa4","3152.75",1,"Same","Same","CR"
"C,8,OH","C","8","OH","NonNative","14","1","4","Ba5-Pa4","-4200.29",0,"Different","Same","Miss"
"C,8,OH","C","8","OH","NonNative","12","1","2","Ba2-Ba3","3661.55",1,"Same","Same","CR"
"C,8,OH","C","8","OH","NonNative","23","2","3","Pa4-Ba3","-3305.38",0,"Different","Same","Miss"
"C,8,OH","C","8","OH","NonNative","21","2","1","Pa5-Pa2","3344.74",1,"Same","Same","CR"
"C,8,OH","C","8","OH","NonNative","22","2","2","Ba5-Ba2","3633.20",1,"Same","Same","CR"
"C,8,OH","C","8","OH","NonNative","24","2","4","Ba3-Pa4","-3378.50",0,"Different","Same","Miss"
"C,8,OH","C","8","OH","NonNative","31","3","1","Pa4-Pa2","3014.53",1,"Same","Same","CR"
"C,8,OH","C","8","OH","NonNative","32","3","2","Ba3-Ba2","3216.38",1,"Same","Same","CR"
"C,8,OH","C","8","OH","NonNative","34","3","4","Ba2-Pa2","-3296.38",0,"Different","Same","Miss"
"C,8,OH","C","8","OH","NonNative","33","3","3","Pa5-Ba5","-3302.51",0,"Different","Same","Miss"
"C,6,BS","C","6","BS","NonNative","14","1","4","Ba5-Pa4","4622.19",1,"Different","Different","Hit"
"C,6,BS","C","6","BS","NonNative","12","1","2","Ba2-Ba3","3533.20",1,"Same","Same","CR"
"C,6,BS","C","6","BS","NonNative","11","1","1","Pa2-Pa4","3316.72",1,"Same","Same","CR"
"C,6,BS","C","6","BS","NonNative","13","1","3","Pa2-Ba2","3327.79",1,"Different","Different","Hit"
"C,6,BS","C","6","BS","NonNative","33","3","3","Pa5-Ba5","3493.20",1,"Different","Different","Hit"
"C,6,BS","C","6","BS","NonNative","32","3","2","Ba3-Ba2","6819.16",1,"Same","Same","CR"
"C,6,BS","C","6","BS","NonNative","31","3","1","Pa4-Pa2","3455.59",1,"Same","Same","CR"
"C,6,BS","C","6","BS","NonNative","34","3","4","Ba2-Pa2","3863.79",1,"Different","Different","Hit"
"C,6,BS","C","6","BS","NonNative","42","4","2","Ba5-Ba3","4219.69",1,"Same","Same","CR"
"C,6,BS","C","6","BS","NonNative","43","4","3","Pa2-Ba3","3477.82",1,"Different","Different","Hit"
"C,6,BS","C","6","BS","NonNative","41","4","1","Pa5-Pa4","3594.72",1,"Same","Same","CR"
"C,6,BS","C","6","BS","NonNative","44","4","4","Ba3-Pa4","4761.91",1,"Different","Different","Hit"
"C,6,BS","C","6","BS","NonNative","21","2","1","Pa5-Pa2","3542.96",1,"Same","Same","CR"
"C,6,BS","C","6","BS","NonNative","23","2","3","Pa4-Ba3","3477.77",1,"Different","Different","Hit"
"C,6,BS","C","6","BS","NonNative","22","2","2","Ba5-Ba2","4093.01",1,"Same","Same","CR"
"C,6,BS","C","6","BS","NonNative","24","2","4","Ba3-Pa4","3755.13",1,"Different","Different","Hit"
"D,15,VC","D","15","VC","NonNative","23","2","3","Pa4-Ba3","-5231.50",0,"Different","Same","Miss"
"D,15,VC","D","15","VC","NonNative","22","2","2","Ba5-Ba2","3889.49",1,"Same","Same","CR"
"D,15,VC","D","15","VC","NonNative","24","2","4","Ba3-Pa4","3518.60",1,"Different","Different","Hit"
"D,15,VC","D","15","VC","NonNative","21","2","1","Pa5-Pa2","3183.76",1,"Same","Same","CR"
"D,15,VC","D","15","VC","NonNative","11","1","1","Pa2-Pa4","3388.98",1,"Same","Same","CR"
"D,15,VC","D","15","VC","NonNative","14","1","4","Ba5-Pa4","3738.32",1,"Different","Different","Hit"
"D,15,VC","D","15","VC","NonNative","12","1","2","Ba2-Ba3","3385.11",1,"Same","Same","CR"
"D,15,VC","D","15","VC","NonNative","13","1","3","Pa2-Ba2","3270.11",1,"Different","Different","Hit"
"D,15,VC","D","15","VC","NonNative","42","4","2","Ba5-Ba3","3845.70",1,"Same","Same","CR"
"D,15,VC","D","15","VC","NonNative","43","4","3","Pa2-Ba3","3894.79",1,"Different","Different","Hit"
"D,15,VC","D","15","VC","NonNative","44","4","4","Ba3-Pa4","4514.10",1,"Different","Different","Hit"
"D,15,VC","D","15","VC","NonNative","41","4","1","Pa5-Pa4","3802.24",1,"Same","Same","CR"
"D,15,VC","D","15","VC","NonNative","31","3","1","Pa4-Pa2","3200.37",1,"Same","Same","CR"
"D,15,VC","D","15","VC","NonNative","33","3","3","Pa5-Ba5","3930.49",1,"Different","Different","Hit"
"D,15,VC","D","15","VC","NonNative","32","3","2","Ba3-Ba2","4910.50",1,"Same","Same","CR"
"D,15,VC","D","15","VC","NonNative","34","3","4","Ba2-Pa2","3821.33",1,"Different","Different","Hit"
"D,12,JC","D","12","JC","NonNative","32","3","2","Ba3-Ba2","4238.39",1,"Same","Same","CR"
"D,12,JC","D","12","JC","NonNative","34","3","4","Ba2-Pa2","-5037.34",0,"Different","Same","Miss"
"D,12,JC","D","12","JC","NonNative","33","3","3","Pa5-Ba5","3770.69",1,"Different","Different","Hit"
"D,12,JC","D","12","JC","NonNative","31","3","1","Pa4-Pa2","3680.38",1,"Same","Same","CR"
"D,12,JC","D","12","JC","NonNative","13","1","3","Pa2-Ba2","3498.10",1,"Different","Different","Hit"
"D,12,JC","D","12","JC","NonNative","11","1","1","Pa2-Pa4","3467.47",1,"Same","Same","CR"
"D,12,JC","D","12","JC","NonNative","12","1","2","Ba2-Ba3","-3874.99",0,"Same","Different","False+"
"D,12,JC","D","12","JC","NonNative","14","1","4","Ba5-Pa4","-3652.41",0,"Different","Same","Miss"
"D,12,JC","D","12","JC","NonNative","22","2","2","Ba5-Ba2","-3971.42",0,"Same","Different","False+"
"D,12,JC","D","12","JC","NonNative","24","2","4","Ba3-Pa4","3684.92",1,"Different","Different","Hit"
"D,12,JC","D","12","JC","NonNative","23","2","3","Pa4-Ba3","3331.10",1,"Different","Different","Hit"
"D,12,JC","D","12","JC","NonNative","21","2","1","Pa5-Pa2","3556.90",1,"Same","Same","CR"
"D,12,JC","D","12","JC","NonNative","44","4","4","Ba3-Pa4","3640.57",1,"Different","Different","Hit"
"D,12,JC","D","12","JC","NonNative","42","4","2","Ba5-Ba3","-3590.84",0,"Same","Different","False+"
"D,12,JC","D","12","JC","NonNative","43","4","3","Pa2-Ba3","3795.96",1,"Different","Different","Hit"
"D,12,JC","D","12","JC","NonNative","41","4","1","Pa5-Pa4","3579.96",1,"Same","Same","CR"
"D,11,GJ","D","11","GJ","NonNative","33","3","3","Pa5-Ba5","-3810.47",0,"Different","Same","Miss"
"D,11,GJ","D","11","GJ","NonNative","34","3","4","Ba2-Pa2","3704.05",1,"Different","Different","Hit"
"D,11,GJ","D","11","GJ","NonNative","31","3","1","Pa4-Pa2","3358.59",1,"Same","Same","CR"
"D,11,GJ","D","11","GJ","NonNative","32","3","2","Ba3-Ba2","4280.65",1,"Same","Same","CR"
"D,11,GJ","D","11","GJ","NonNative","11","1","1","Pa2-Pa4","5430.83",1,"Same","Same","CR"
"D,11,GJ","D","11","GJ","NonNative","13","1","3","Pa2-Ba2","4416.22",1,"Different","Different","Hit"
"D,11,GJ","D","11","GJ","NonNative","14","1","4","Ba5-Pa4","4974.78",1,"Different","Different","Hit"
"D,11,GJ","D","11","GJ","NonNative","12","1","2","Ba2-Ba3","3925.87",1,"Same","Same","CR"
"D,11,GJ","D","11","GJ","NonNative","44","4","4","Ba3-Pa4","3553.22",1,"Different","Different","Hit"
"D,11,GJ","D","11","GJ","NonNative","43","4","3","Pa2-Ba3","4041.46",1,"Different","Different","Hit"
"D,11,GJ","D","11","GJ","NonNative","41","4","1","Pa5-Pa4","3307.05",1,"Same","Same","CR"
"D,11,GJ","D","11","GJ","NonNative","42","4","2","Ba5-Ba3","4204.90",1,"Same","Same","CR"
"D,11,GJ","D","11","GJ","NonNative","23","2","3","Pa4-Ba3","3860.10",1,"Different","Different","Hit"
"D,11,GJ","D","11","GJ","NonNative","21","2","1","Pa5-Pa2","3224.71",1,"Same","Same","CR"
"D,11,GJ","D","11","GJ","NonNative","22","2","2","Ba5-Ba2","4976.42",1,"Same","Same","CR"
"D,11,GJ","D","11","GJ","NonNative","24","2","4","Ba3-Pa4","3596.70",1,"Different","Different","Hit"
"D,10,SC","D","10","SC","NonNative","13","1","3","Pa2-Ba2","-4607.94",0,"Different","Same","Miss"
"D,10,SC","D","10","SC","NonNative","14","1","4","Ba5-Pa4","-7458.04",0,"Different","Same","Miss"
"D,10,SC","D","10","SC","NonNative","12","1","2","Ba2-Ba3","3720.21",1,"Same","Same","CR"
"D,10,SC","D","10","SC","NonNative","11","1","1","Pa2-Pa4","3331.75",1,"Same","Same","CR"
"D,10,SC","D","10","SC","NonNative","32","3","2","Ba3-Ba2","6726.21",1,"Same","Same","CR"
"D,10,SC","D","10","SC","NonNative","33","3","3","Pa5-Ba5","-7825.87",0,"Different","Same","Miss"
"D,10,SC","D","10","SC","NonNative","31","3","1","Pa4-Pa2","3372.99",1,"Same","Same","CR"
"D,10,SC","D","10","SC","NonNative","34","3","4","Ba2-Pa2","-5646.64",0,"Different","Same","Miss"
"D,10,SC","D","10","SC","NonNative","22","2","2","Ba5-Ba2","3524.38",1,"Same","Same","CR"
"D,10,SC","D","10","SC","NonNative","24","2","4","Ba3-Pa4","-6080.20",0,"Different","Same","Miss"
"D,10,SC","D","10","SC","NonNative","23","2","3","Pa4-Ba3","-15941.03",0,"Different","Same","Miss"
"D,10,SC","D","10","SC","NonNative","21","2","1","Pa5-Pa2","3552.71",1,"Same","Same","CR"
"D,10,SC","D","10","SC","NonNative","43","4","3","Pa2-Ba3","-7930.50",0,"Different","Same","Miss"
"D,10,SC","D","10","SC","NonNative","42","4","2","Ba5-Ba3","3217.51",1,"Same","Same","CR"
"D,10,SC","D","10","SC","NonNative","41","4","1","Pa5-Pa4","3123.80",1,"Same","Same","CR"
"D,10,SC","D","10","SC","NonNative","44","4","4","Ba3-Pa4","-7211.15",0,"Different","Same","Miss"
"D,14,AC","D","14","AC","NonNative","11","1","1","Pa2-Pa4","3446.12",1,"Same","Same","CR"
"D,14,AC","D","14","AC","NonNative","12","1","2","Ba2-Ba3","-10903.21",0,"Same","Different","False+"
"D,14,AC","D","14","AC","NonNative","14","1","4","Ba5-Pa4","3711.25",1,"Different","Different","Hit"
"D,14,AC","D","14","AC","NonNative","13","1","3","Pa2-Ba2","4744.15",1,"Different","Different","Hit"
"D,14,AC","D","14","AC","NonNative","22","2","2","Ba5-Ba2","3452.27",1,"Same","Same","CR"
"D,14,AC","D","14","AC","NonNative","24","2","4","Ba3-Pa4","4025.66",1,"Different","Different","Hit"
"D,14,AC","D","14","AC","NonNative","21","2","1","Pa5-Pa2","3519.70",1,"Same","Same","CR"
"D,14,AC","D","14","AC","NonNative","23","2","3","Pa4-Ba3","3319.39",1,"Different","Different","Hit"
"D,14,AC","D","14","AC","NonNative","32","3","2","Ba3-Ba2","3660.99",1,"Same","Same","CR"
"D,14,AC","D","14","AC","NonNative","33","3","3","Pa5-Ba5","5384.23",1,"Different","Different","Hit"
"D,14,AC","D","14","AC","NonNative","31","3","1","Pa4-Pa2","3119.19",1,"Same","Same","CR"
"D,14,AC","D","14","AC","NonNative","34","3","4","Ba2-Pa2","3601.86",1,"Different","Different","Hit"
"D,14,AC","D","14","AC","NonNative","43","4","3","Pa2-Ba3","3042.80",1,"Different","Different","Hit"
"D,14,AC","D","14","AC","NonNative","41","4","1","Pa5-Pa4","3229.15",1,"Same","Same","CR"
"D,14,AC","D","14","AC","NonNative","42","4","2","Ba5-Ba3","3433.55",1,"Same","Same","CR"
"D,14,AC","D","14","AC","NonNative","44","4","4","Ba3-Pa4","3288.00",1,"Different","Different","Hit"
"C,2,MC","C","2","MC","NonNative","24","2","4","Ba3-Pa4","3531.77",1,"Different","Different","Hit"
"C,2,MC","C","2","MC","NonNative","23","2","3","Pa4-Ba3","3678.51",1,"Different","Different","Hit"
"C,2,MC","C","2","MC","NonNative","21","2","1","Pa5-Pa2","3585.02",1,"Same","Same","CR"
"C,2,MC","C","2","MC","NonNative","22","2","2","Ba5-Ba2","3303.04",1,"Same","Same","CR"
"C,2,MC","C","2","MC","NonNative","14","1","4","Ba5-Pa4","3857.80",1,"Different","Different","Hit"
"C,2,MC","C","2","MC","NonNative","12","1","2","Ba2-Ba3","3519.62",1,"Same","Same","CR"
"C,2,MC","C","2","MC","NonNative","13","1","3","Pa2-Ba2","3404.96",1,"Different","Different","Hit"
"C,2,MC","C","2","MC","NonNative","11","1","1","Pa2-Pa4","3136.91",1,"Same","Same","CR"
"C,2,MC","C","2","MC","NonNative","43","4","3","Pa2-Ba3","-3149.60",0,"Different","Same","Miss"
"C,2,MC","C","2","MC","NonNative","44","4","4","Ba3-Pa4","-2822.41",0,"Different","Same","Miss"
"C,2,MC","C","2","MC","NonNative","42","4","2","Ba5-Ba3","3024.89",1,"Same","Same","CR"
"C,2,MC","C","2","MC","NonNative","41","4","1","Pa5-Pa4","2776.56",1,"Same","Same","CR"
"C,2,MC","C","2","MC","NonNative","32","3","2","Ba3-Ba2","3090.13",1,"Same","Same","CR"
"C,2,MC","C","2","MC","NonNative","33","3","3","Pa5-Ba5","-3061.53",0,"Different","Same","Miss"
"C,2,MC","C","2","MC","NonNative","34","3","4","Ba2-Pa2","-3262.02",0,"Different","Same","Miss"
"C,2,MC","C","2","MC","NonNative","31","3","1","Pa4-Pa2","3105.50",1,"Same","Same","CR"
"C,5,RT","C","5","RT","NonNative","23","2","3","Pa4-Ba3","3504.88",1,"Different","Different","Hit"
"C,5,RT","C","5","RT","NonNative","22","2","2","Ba5-Ba2","3560.31",1,"Same","Same","CR"
"C,5,RT","C","5","RT","NonNative","21","2","1","Pa5-Pa2","3879.93",1,"Same","Same","CR"
"C,5,RT","C","5","RT","NonNative","24","2","4","Ba3-Pa4","3104.38",1,"Different","Different","Hit"
"C,5,RT","C","5","RT","NonNative","13","1","3","Pa2-Ba2","3090.59",1,"Different","Different","Hit"
"C,5,RT","C","5","RT","NonNative","14","1","4","Ba5-Pa4","3212.04",1,"Different","Different","Hit"
"C,5,RT","C","5","RT","NonNative","11","1","1","Pa2-Pa4","2795.51",1,"Same","Same","CR"
"C,5,RT","C","5","RT","NonNative","12","1","2","Ba2-Ba3","3153.79",1,"Same","Same","CR"
"C,5,RT","C","5","RT","NonNative","44","4","4","Ba3-Pa4","3414.25",1,"Different","Different","Hit"
"C,5,RT","C","5","RT","NonNative","43","4","3","Pa2-Ba3","3349.61",1,"Different","Different","Hit"
"C,5,RT","C","5","RT","NonNative","41","4","1","Pa5-Pa4","3300.78",1,"Same","Same","CR"
"C,5,RT","C","5","RT","NonNative","42","4","2","Ba5-Ba3","3806.33",1,"Same","Same","CR"
"C,5,RT","C","5","RT","NonNative","33","3","3","Pa5-Ba5","3398.91",1,"Different","Different","Hit"
"C,5,RT","C","5","RT","NonNative","34","3","4","Ba2-Pa2","3496.39",1,"Different","Different","Hit"
"C,5,RT","C","5","RT","NonNative","32","3","2","Ba3-Ba2","4565.48",1,"Same","Same","CR"
"C,5,RT","C","5","RT","NonNative","31","3","1","Pa4-Pa2","5785.62",1,"Same","Same","CR"
"C,9,ST","C","9","ST","NonNative","33","3","3","Pa5-Ba5","3794.69",1,"Different","Different","Hit"
"C,9,ST","C","9","ST","NonNative","32","3","2","Ba3-Ba2","3995.60",1,"Same","Same","CR"
"C,9,ST","C","9","ST","NonNative","34","3","4","Ba2-Pa2","3750.52",1,"Different","Different","Hit"
"C,9,ST","C","9","ST","NonNative","31","3","1","Pa4-Pa2","3424.25",1,"Same","Same","CR"
"C,9,ST","C","9","ST","NonNative","41","4","1","Pa5-Pa4","3213.15",1,"Same","Same","CR"
"C,9,ST","C","9","ST","NonNative","42","4","2","Ba5-Ba3","3373.98",1,"Same","Same","CR"
"C,9,ST","C","9","ST","NonNative","44","4","4","Ba3-Pa4","-3240.05",0,"Different","Same","Miss"
"C,9,ST","C","9","ST","NonNative","43","4","3","Pa2-Ba3","-3442.80",0,"Different","Same","Miss"
"C,9,ST","C","9","ST","NonNative","11","1","1","Pa2-Pa4","2813.68",1,"Same","Same","CR"
"C,9,ST","C","9","ST","NonNative","13","1","3","Pa2-Ba2","-3490.30",0,"Different","Same","Miss"
"C,9,ST","C","9","ST","NonNative","14","1","4","Ba5-Pa4","-3190.01",0,"Different","Same","Miss"
"C,9,ST","C","9","ST","NonNative","12","1","2","Ba2-Ba3","3747.71",1,"Same","Same","CR"
"C,9,ST","C","9","ST","NonNative","24","2","4","Ba3-Pa4","-3270.12",0,"Different","Same","Miss"
"C,9,ST","C","9","ST","NonNative","21","2","1","Pa5-Pa2","3035.58",1,"Same","Same","CR"
"C,9,ST","C","9","ST","NonNative","23","2","3","Pa4-Ba3","3427.65",1,"Different","Different","Hit"
"C,9,ST","C","9","ST","NonNative","22","2","2","Ba5-Ba2","3073.12",1,"Same","Same","CR"
"C,10,EG","C","10","EG","NonNative","43","4","3","Pa2-Ba3","-6598.05",0,"Different","Same","Miss"
"C,10,EG","C","10","EG","NonNative","41","4","1","Pa5-Pa4","3206.15",1,"Same","Same","CR"
"C,10,EG","C","10","EG","NonNative","44","4","4","Ba3-Pa4","-2974.30",0,"Different","Same","Miss"
"C,10,EG","C","10","EG","NonNative","42","4","2","Ba5-Ba3","-4046.72",0,"Same","Different","False+"
"C,10,EG","C","10","EG","NonNative","14","1","4","Ba5-Pa4","-3339.04",0,"Different","Same","Miss"
"C,10,EG","C","10","EG","NonNative","13","1","3","Pa2-Ba2","-2993.17",0,"Different","Same","Miss"
"C,10,EG","C","10","EG","NonNative","12","1","2","Ba2-Ba3","3188.93",1,"Same","Same","CR"
"C,10,EG","C","10","EG","NonNative","11","1","1","Pa2-Pa4","2917.43",1,"Same","Same","CR"
"C,10,EG","C","10","EG","NonNative","32","3","2","Ba3-Ba2","3215.70",1,"Same","Same","CR"
"C,10,EG","C","10","EG","NonNative","33","3","3","Pa5-Ba5","-3236.95",0,"Different","Same","Miss"
"C,10,EG","C","10","EG","NonNative","31","3","1","Pa4-Pa2","2935.08",1,"Same","Same","CR"
"C,10,EG","C","10","EG","NonNative","34","3","4","Ba2-Pa2","-2768.62",0,"Different","Same","Miss"
"C,10,EG","C","10","EG","NonNative","23","2","3","Pa4-Ba3","-3012.64",0,"Different","Same","Miss"
"C,10,EG","C","10","EG","NonNative","22","2","2","Ba5-Ba2","3207.57",1,"Same","Same","CR"
"C,10,EG","C","10","EG","NonNative","24","2","4","Ba3-Pa4","-3441.13",0,"Different","Same","Miss"
"C,10,EG","C","10","EG","NonNative","21","2","1","Pa5-Pa2","3346.79",1,"Same","Same","CR"
"C,13,CO","C","13","CO","NonNative","21","2","1","Pa5-Pa2","4559.87",1,"Same","Same","CR"
"C,13,CO","C","13","CO","NonNative","22","2","2","Ba5-Ba2","4009.12",1,"Same","Same","CR"
"C,13,CO","C","13","CO","NonNative","24","2","4","Ba3-Pa4","-4181.47",0,"Different","Same","Miss"
"C,13,CO","C","13","CO","NonNative","23","2","3","Pa4-Ba3","-4279.80",0,"Different","Same","Miss"
"C,13,CO","C","13","CO","NonNative","12","1","2","Ba2-Ba3","5448.59",1,"Same","Same","CR"
"C,13,CO","C","13","CO","NonNative","11","1","1","Pa2-Pa4","4496.70",1,"Same","Same","CR"
"C,13,CO","C","13","CO","NonNative","13","1","3","Pa2-Ba2","-4879.72",0,"Different","Same","Miss"
"C,13,CO","C","13","CO","NonNative","14","1","4","Ba5-Pa4","-4799.31",0,"Different","Same","Miss"
"C,13,CO","C","13","CO","NonNative","33","3","3","Pa5-Ba5","-4287.33",0,"Different","Same","Miss"
"C,13,CO","C","13","CO","NonNative","32","3","2","Ba3-Ba2","6887.72",1,"Same","Same","CR"
"C,13,CO","C","13","CO","NonNative","31","3","1","Pa4-Pa2","3907.74",1,"Same","Same","CR"
"C,13,CO","C","13","CO","NonNative","34","3","4","Ba2-Pa2","-8521.33",0,"Different","Same","Miss"
"C,13,CO","C","13","CO","NonNative","41","4","1","Pa5-Pa4","4930.76",1,"Same","Same","CR"
"C,13,CO","C","13","CO","NonNative","43","4","3","Pa2-Ba3","-4132.32",0,"Different","Same","Miss"
"C,13,CO","C","13","CO","NonNative","42","4","2","Ba5-Ba3","5036.56",1,"Same","Same","CR"
"C,13,CO","C","13","CO","NonNative","44","4","4","Ba3-Pa4","-6272.29",0,"Different","Same","Miss"
"C,14,AO","C","14","AO","NonNative","31","3","1","Pa4-Pa2","4528.87",1,"Same","Same","CR"
"C,14,AO","C","14","AO","NonNative","33","3","3","Pa5-Ba5","3790.93",1,"Different","Different","Hit"
"C,14,AO","C","14","AO","NonNative","32","3","2","Ba3-Ba2","-4304.59",0,"Same","Different","False+"
"C,14,AO","C","14","AO","NonNative","34","3","4","Ba2-Pa2","-3332.62",0,"Different","Same","Miss"
"C,14,AO","C","14","AO","NonNative","12","1","2","Ba2-Ba3","3988.70",1,"Same","Same","CR"
"C,14,AO","C","14","AO","NonNative","11","1","1","Pa2-Pa4","3440.59",1,"Same","Same","CR"
"C,14,AO","C","14","AO","NonNative","14","1","4","Ba5-Pa4","3869.32",1,"Different","Different","Hit"
"C,14,AO","C","14","AO","NonNative","13","1","3","Pa2-Ba2","-4161.14",0,"Different","Same","Miss"
"C,14,AO","C","14","AO","NonNative","44","4","4","Ba3-Pa4","3842.93",1,"Different","Different","Hit"
"C,14,AO","C","14","AO","NonNative","41","4","1","Pa5-Pa4","3403.81",1,"Same","Same","CR"
"C,14,AO","C","14","AO","NonNative","42","4","2","Ba5-Ba3","3847.04",1,"Same","Same","CR"
"C,14,AO","C","14","AO","NonNative","43","4","3","Pa2-Ba3","4342.68",1,"Different","Different","Hit"
"C,14,AO","C","14","AO","NonNative","22","2","2","Ba5-Ba2","3742.38",1,"Same","Same","CR"
"C,14,AO","C","14","AO","NonNative","24","2","4","Ba3-Pa4","3704.69",1,"Different","Different","Hit"
"C,14,AO","C","14","AO","NonNative","21","2","1","Pa5-Pa2","4157.00",1,"Same","Same","CR"
"C,14,AO","C","14","AO","NonNative","23","2","3","Pa4-Ba3","-4063.83",0,"Different","Same","Miss"
"C,7,DD","C","7","DD","NonNative","31","3","1","Pa4-Pa2","3719.40",1,"Same","Same","CR"
"C,7,DD","C","7","DD","NonNative","33","3","3","Pa5-Ba5","-3901.89",0,"Different","Same","Miss"
"C,7,DD","C","7","DD","NonNative","34","3","4","Ba2-Pa2","-4662.18",0,"Different","Same","Miss"
"C,7,DD","C","7","DD","NonNative","32","3","2","Ba3-Ba2","-4224.10",0,"Same","Different","False+"
"C,7,DD","C","7","DD","NonNative","21","2","1","Pa5-Pa2","3401.49",1,"Same","Same","CR"
"C,7,DD","C","7","DD","NonNative","24","2","4","Ba3-Pa4","-3962.55",0,"Different","Same","Miss"
"C,7,DD","C","7","DD","NonNative","22","2","2","Ba5-Ba2","4044.84",1,"Same","Same","CR"
"C,7,DD","C","7","DD","NonNative","23","2","3","Pa4-Ba3","-3466.21",0,"Different","Same","Miss"
"C,7,DD","C","7","DD","NonNative","14","1","4","Ba5-Pa4","-3180.68",0,"Different","Same","Miss"
"C,7,DD","C","7","DD","NonNative","12","1","2","Ba2-Ba3","3409.20",1,"Same","Same","CR"
"C,7,DD","C","7","DD","NonNative","13","1","3","Pa2-Ba2","-3663.94",0,"Different","Same","Miss"
"C,7,DD","C","7","DD","NonNative","11","1","1","Pa2-Pa4","3079.94",1,"Same","Same","CR"
"C,7,DD","C","7","DD","NonNative","44","4","4","Ba3-Pa4","-4251.82",0,"Different","Same","Miss"
"C,7,DD","C","7","DD","NonNative","41","4","1","Pa5-Pa4","3229.65",1,"Same","Same","CR"
"C,7,DD","C","7","DD","NonNative","43","4","3","Pa2-Ba3","-3054.14",0,"Different","Same","Miss"
"C,7,DD","C","7","DD","NonNative","42","4","2","Ba5-Ba3","3616.80",1,"Same","Same","CR"
"C,15,MD","C","15","MD","NonNative","21","2","1","Pa5-Pa2","4238.35",1,"Same","Same","CR"
"C,15,MD","C","15","MD","NonNative","24","2","4","Ba3-Pa4","4239.59",1,"Different","Different","Hit"
"C,15,MD","C","15","MD","NonNative","22","2","2","Ba5-Ba2","4021.81",1,"Same","Same","CR"
"C,15,MD","C","15","MD","NonNative","23","2","3","Pa4-Ba3","-6099.82",0,"Different","Same","Miss"
"C,15,MD","C","15","MD","NonNative","34","3","4","Ba2-Pa2","-5996.71",0,"Different","Same","Miss"
"C,15,MD","C","15","MD","NonNative","33","3","3","Pa5-Ba5","-5158.69",0,"Different","Same","Miss"
"C,15,MD","C","15","MD","NonNative","31","3","1","Pa4-Pa2","4438.09",1,"Same","Same","CR"
"C,15,MD","C","15","MD","NonNative","32","3","2","Ba3-Ba2","3970.76",1,"Same","Same","CR"
"C,15,MD","C","15","MD","NonNative","43","4","3","Pa2-Ba3","-3890.23",0,"Different","Same","Miss"
"C,15,MD","C","15","MD","NonNative","42","4","2","Ba5-Ba3","3833.65",1,"Same","Same","CR"
"C,15,MD","C","15","MD","NonNative","44","4","4","Ba3-Pa4","5447.83",1,"Different","Different","Hit"
"C,15,MD","C","15","MD","NonNative","41","4","1","Pa5-Pa4","3581.23",1,"Same","Same","CR"
"C,15,MD","C","15","MD","NonNative","12","1","2","Ba2-Ba3","3825.40",1,"Same","Same","CR"
"C,15,MD","C","15","MD","NonNative","14","1","4","Ba5-Pa4","-4182.80",0,"Different","Same","Miss"
"C,15,MD","C","15","MD","NonNative","13","1","3","Pa2-Ba2","-3667.21",0,"Different","Same","Miss"
"C,15,MD","C","15","MD","NonNative","11","1","1","Pa2-Pa4","3617.78",1,"Same","Same","CR"
"C,12,CP","C","12","CP","NonNative","34","3","4","Ba2-Pa2","4508.61",1,"Different","Different","Hit"
"C,12,CP","C","12","CP","NonNative","33","3","3","Pa5-Ba5","-5084.66",0,"Different","Same","Miss"
"C,12,CP","C","12","CP","NonNative","31","3","1","Pa4-Pa2","3782.75",1,"Same","Same","CR"
"C,12,CP","C","12","CP","NonNative","32","3","2","Ba3-Ba2","4502.57",1,"Same","Same","CR"
"C,12,CP","C","12","CP","NonNative","21","2","1","Pa5-Pa2","4707.59",1,"Same","Same","CR"
"C,12,CP","C","12","CP","NonNative","24","2","4","Ba3-Pa4","3586.26",1,"Different","Different","Hit"
"C,12,CP","C","12","CP","NonNative","22","2","2","Ba5-Ba2","4060.59",1,"Same","Same","CR"
"C,12,CP","C","12","CP","NonNative","23","2","3","Pa4-Ba3","-4145.47",0,"Different","Same","Miss"
"C,12,CP","C","12","CP","NonNative","42","4","2","Ba5-Ba3","4698.24",1,"Same","Same","CR"
"C,12,CP","C","12","CP","NonNative","44","4","4","Ba3-Pa4","3661.78",1,"Different","Different","Hit"
"C,12,CP","C","12","CP","NonNative","43","4","3","Pa2-Ba3","3720.34",1,"Different","Different","Hit"
"C,12,CP","C","12","CP","NonNative","41","4","1","Pa5-Pa4","3910.65",1,"Same","Same","CR"
"C,12,CP","C","12","CP","NonNative","12","1","2","Ba2-Ba3","4049.24",1,"Same","Same","CR"
"C,12,CP","C","12","CP","NonNative","11","1","1","Pa2-Pa4","4515.07",1,"Same","Same","CR"
"C,12,CP","C","12","CP","NonNative","14","1","4","Ba5-Pa4","3651.14",1,"Different","Different","Hit"
"C,12,CP","C","12","CP","NonNative","13","1","3","Pa2-Ba2","3871.80",1,"Different","Different","Hit"
"C,11,EP","C","11","EP","NonNative","33","3","3","Pa5-Ba5","-4077.93",0,"Different","Same","Miss"
"C,11,EP","C","11","EP","NonNative","31","3","1","Pa4-Pa2","3540.54",1,"Same","Same","CR"
"C,11,EP","C","11","EP","NonNative","32","3","2","Ba3-Ba2","4376.30",1,"Same","Same","CR"
"C,11,EP","C","11","EP","NonNative","34","3","4","Ba2-Pa2","-3626.82",0,"Different","Same","Miss"
"C,11,EP","C","11","EP","NonNative","24","2","4","Ba3-Pa4","-4354.86",0,"Different","Same","Miss"
"C,11,EP","C","11","EP","NonNative","23","2","3","Pa4-Ba3","-3820.60",0,"Different","Same","Miss"
"C,11,EP","C","11","EP","NonNative","21","2","1","Pa5-Pa2","3578.32",1,"Same","Same","CR"
"C,11,EP","C","11","EP","NonNative","22","2","2","Ba5-Ba2","3494.76",1,"Same","Same","CR"
"C,11,EP","C","11","EP","NonNative","12","1","2","Ba2-Ba3","3335.17",1,"Same","Same","CR"
"C,11,EP","C","11","EP","NonNative","13","1","3","Pa2-Ba2","-3177.97",0,"Different","Same","Miss"
"C,11,EP","C","11","EP","NonNative","14","1","4","Ba5-Pa4","-3771.18",0,"Different","Same","Miss"
"C,11,EP","C","11","EP","NonNative","11","1","1","Pa2-Pa4","3717.78",1,"Same","Same","CR"
"C,11,EP","C","11","EP","NonNative","44","4","4","Ba3-Pa4","-3847.20",0,"Different","Same","Miss"
"C,11,EP","C","11","EP","NonNative","41","4","1","Pa5-Pa4","4158.96",1,"Same","Same","CR"
"C,11,EP","C","11","EP","NonNative","42","4","2","Ba5-Ba3","4096.13",1,"Same","Same","CR"
"C,11,EP","C","11","EP","NonNative","43","4","3","Pa2-Ba3","-3674.10",0,"Different","Same","Miss"