"ID","Group","Subject","Initials","Condition","Item number","Block","Trial","Audio stimuli","Reaction time","Accuracy","Target response","Participant response","Response type"
"C,1,EB","C","1","EB","Native","42","4","2","Pa4-Pa2","4752.32",1,"Same","Same","CR"
"C,1,EB","C","1","EB","Native","43","4","3","Pha1-Pa4","3731.17",1,"Different","Different","Hit"
"C,1,EB","C","1","EB","Native","41","4","1","Pha2-Pha1","3858.00",1,"Same","Same","CR"
"C,1,EB","C","1","EB","Native","44","4","4","Pa5-Pha1","3868.16",1,"Different","Different","Hit"
"C,1,EB","C","1","EB","Native","21","2","1","Pha5-Pha1","3485.46",1,"Same","Same","CR"
"C,1,EB","C","1","EB","Native","24","2","4","Pa4-Pha1","3309.74",1,"Different","Different","Hit"
"C,1,EB","C","1","EB","Native","22","2","2","Pa5-Pa2","3684.63",1,"Same","Same","CR"
"C,1,EB","C","1","EB","Native","23","2","3","Pha2-Pa4","3329.54",1,"Different","Different","Hit"
"C,1,EB","C","1","EB","Native","13","1","3","Pha1-Pa2","3633.59",1,"Different","Different","Hit"
"C,1,EB","C","1","EB","Native","14","1","4","Pa2-Pha5","3721.86",1,"Different","Different","Hit"
"C,1,EB","C","1","EB","Native","12","1","2","Pa2-Pa4","3675.00",1,"Same","Same","CR"
"C,1,EB","C","1","EB","Native","11","1","1","Pha1-Pha2","3417.50",1,"Same","Same","CR"
"C,1,EB","C","1","EB","Native","31","3","1","Pha2-Pha5","3302.44",1,"Same","Same","CR"
"C,1,EB","C","1","EB","Native","33","3","3","Pha5-Pa5","3790.99",1,"Different","Different","Hit"
"C,1,EB","C","1","EB","Native","34","3","4","Pa2-Pha2","4306.87",1,"Different","Different","Hit"
"C,1,EB","C","1","EB","Native","32","3","2","Pa4-Pa5","3432.92",1,"Same","Same","CR"
"D,1,ZL","D","1","ZL","Native","12","1","2","Pa2-Pa4","3342.21",1,"Same","Same","CR"
"D,1,ZL","D","1","ZL","Native","13","1","3","Pha1-Pa2","3285.74",1,"Different","Different","Hit"
"D,1,ZL","D","1","ZL","Native","14","1","4","Pa2-Pha5","-3423.42",0,"Different","Same","Miss"
"D,1,ZL","D","1","ZL","Native","11","1","1","Pha1-Pha2","3349.23",1,"Same","Same","CR"
"D,1,ZL","D","1","ZL","Native","34","3","4","Pa2-Pha2","3443.05",1,"Different","Different","Hit"
"D,1,ZL","D","1","ZL","Native","32","3","2","Pa4-Pa5","3107.92",1,"Same","Same","CR"
"D,1,ZL","D","1","ZL","Native","33","3","3","Pha5-Pa5","3410.30",1,"Different","Different","Hit"
"D,1,ZL","D","1","ZL","Native","31","3","1","Pha2-Pha5","2873.31",1,"Same","Same","CR"
"D,1,ZL","D","1","ZL","Native","24","2","4","Pa4-Pha1","3363.56",1,"Different","Different","Hit"
"D,1,ZL","D","1","ZL","Native","22","2","2","Pa5-Pa2","3077.06",1,"Same","Same","CR"
"D,1,ZL","D","1","ZL","Native","21","2","1","Pha5-Pha1","3187.40",1,"Same","Same","CR"
"D,1,ZL","D","1","ZL","Native","23","2","3","Pha2-Pa4","4563.69",1,"Different","Different","Hit"
"D,1,ZL","D","1","ZL","Native","43","4","3","Pha1-Pa4","4144.57",1,"Different","Different","Hit"
"D,1,ZL","D","1","ZL","Native","42","4","2","Pa4-Pa2","3479.60",1,"Same","Same","CR"
"D,1,ZL","D","1","ZL","Native","44","4","4","Pa5-Pha1","3123.42",1,"Different","Different","Hit"
"D,1,ZL","D","1","ZL","Native","41","4","1","Pha2-Pha1","2922.68",1,"Same","Same","CR"
"D,2,IL","D","2","IL","Native","23","2","3","Pha2-Pa4","-3610.61",0,"Different","Same","Miss"
"D,2,IL","D","2","IL","Native","22","2","2","Pa5-Pa2","3687.85",1,"Same","Same","CR"
"D,2,IL","D","2","IL","Native","21","2","1","Pha5-Pha1","3797.34",1,"Same","Same","CR"
"D,2,IL","D","2","IL","Native","24","2","4","Pa4-Pha1","4866.88",1,"Different","Different","Hit"
"D,2,IL","D","2","IL","Native","13","1","3","Pha1-Pa2","3236.72",1,"Different","Different","Hit"
"D,2,IL","D","2","IL","Native","12","1","2","Pa2-Pa4","3786.96",1,"Same","Same","CR"
"D,2,IL","D","2","IL","Native","11","1","1","Pha1-Pha2","3448.13",1,"Same","Same","CR"
"D,2,IL","D","2","IL","Native","14","1","4","Pa2-Pha5","4313.55",1,"Different","Different","Hit"
"D,2,IL","D","2","IL","Native","31","3","1","Pha2-Pha5","3366.54",1,"Same","Same","CR"
"D,2,IL","D","2","IL","Native","34","3","4","Pa2-Pha2","3770.77",1,"Different","Different","Hit"
"D,2,IL","D","2","IL","Native","33","3","3","Pha5-Pa5","4169.54",1,"Different","Different","Hit"
"D,2,IL","D","2","IL","Native","32","3","2","Pa4-Pa5","3425.88",1,"Same","Same","CR"
"D,2,IL","D","2","IL","Native","41","4","1","Pha2-Pha1","4787.73",1,"Same","Same","CR"
"D,2,IL","D","2","IL","Native","44","4","4","Pa5-Pha1","4066.43",1,"Different","Different","Hit"
"D,2,IL","D","2","IL","Native","43","4","3","Pha1-Pa4","2899.08",1,"Different","Different","Hit"
"D,2,IL","D","2","IL","Native","42","4","2","Pa4-Pa2","3731.92",1,"Same","Same","CR"
"D,3,FM","D","3","FM","Native","42","4","2","Pa4-Pa2","3643.02",1,"Same","Same","CR"
"D,3,FM","D","3","FM","Native","44","4","4","Pa5-Pha1","2872.30",1,"Different","Different","Hit"
"D,3,FM","D","3","FM","Native","41","4","1","Pha2-Pha1","2889.43",1,"Same","Same","CR"
"D,3,FM","D","3","FM","Native","43","4","3","Pha1-Pa4","3019.00",1,"Different","Different","Hit"
"D,3,FM","D","3","FM","Native","11","1","1","Pha1-Pha2","2961.22",1,"Same","Same","CR"
"D,3,FM","D","3","FM","Native","13","1","3","Pha1-Pa2","3191.12",1,"Different","Different","Hit"
"D,3,FM","D","3","FM","Native","12","1","2","Pa2-Pa4","2861.84",1,"Same","Same","CR"
"D,3,FM","D","3","FM","Native","14","1","4","Pa2-Pha5","2939.11",1,"Different","Different","Hit"
"D,3,FM","D","3","FM","Native","24","2","4","Pa4-Pha1","3199.21",1,"Different","Different","Hit"
"D,3,FM","D","3","FM","Native","22","2","2","Pa5-Pa2","3019.37",1,"Same","Same","CR"
"D,3,FM","D","3","FM","Native","21","2","1","Pha5-Pha1","3498.85",1,"Same","Same","CR"
"D,3,FM","D","3","FM","Native","23","2","3","Pha2-Pa4","3046.22",1,"Different","Different","Hit"
"D,3,FM","D","3","FM","Native","31","3","1","Pha2-Pha5","3104.77",1,"Same","Same","CR"
"D,3,FM","D","3","FM","Native","33","3","3","Pha5-Pa5","3016.30",1,"Different","Different","Hit"
"D,3,FM","D","3","FM","Native","32","3","2","Pa4-Pa5","3016.81",1,"Same","Same","CR"
"D,3,FM","D","3","FM","Native","34","3","4","Pa2-Pha2","3343.61",1,"Different","Different","Hit"
"D,4,IM","D","4","IM","Native","33","3","3","Pha5-Pa5","7572.74",1,"Different","Different","Hit"
"D,4,IM","D","4","IM","Native","34","3","4","Pa2-Pha2","8656.12",1,"Different","Different","Hit"
"D,4,IM","D","4","IM","Native","32","3","2","Pa4-Pa5","3470.87",1,"Same","Same","CR"
"D,4,IM","D","4","IM","Native","31","3","1","Pha2-Pha5","3924.33",1,"Same","Same","CR"
"D,4,IM","D","4","IM","Native","14","1","4","Pa2-Pha5","6071.13",1,"Different","Different","Hit"
"D,4,IM","D","4","IM","Native","12","1","2","Pa2-Pa4","3455.16",1,"Same","Same","CR"
"D,4,IM","D","4","IM","Native","11","1","1","Pha1-Pha2","3328.92",1,"Same","Same","CR"
"D,4,IM","D","4","IM","Native","13","1","3","Pha1-Pa2","3346.17",1,"Different","Different","Hit"
"D,4,IM","D","4","IM","Native","24","2","4","Pa4-Pha1","5218.42",1,"Different","Different","Hit"
"D,4,IM","D","4","IM","Native","21","2","1","Pha5-Pha1","3161.50",1,"Same","Same","CR"
"D,4,IM","D","4","IM","Native","23","2","3","Pha2-Pa4","4949.23",1,"Different","Different","Hit"
"D,4,IM","D","4","IM","Native","22","2","2","Pa5-Pa2","2977.87",1,"Same","Same","CR"
"D,4,IM","D","4","IM","Native","44","4","4","Pa5-Pha1","8672.53",1,"Different","Different","Hit"
"D,4,IM","D","4","IM","Native","42","4","2","Pa4-Pa2","5514.62",1,"Same","Same","CR"
"D,4,IM","D","4","IM","Native","41","4","1","Pha2-Pha1","4619.04",1,"Same","Same","CR"
"D,4,IM","D","4","IM","Native","43","4","3","Pha1-Pa4","4782.23",1,"Different","Different","Hit"
"D,5,EM","D","5","EM","Native","31","3","1","Pha2-Pha5","3968.32",1,"Same","Same","CR"
"D,5,EM","D","5","EM","Native","33","3","3","Pha5-Pa5","3529.11",1,"Different","Different","Hit"
"D,5,EM","D","5","EM","Native","32","3","2","Pa4-Pa5","3479.08",1,"Same","Same","CR"
"D,5,EM","D","5","EM","Native","34","3","4","Pa2-Pha2","3666.76",1,"Different","Different","Hit"
"D,5,EM","D","5","EM","Native","44","4","4","Pa5-Pha1","3490.32",1,"Different","Different","Hit"
"D,5,EM","D","5","EM","Native","43","4","3","Pha1-Pa4","3711.03",1,"Different","Different","Hit"
"D,5,EM","D","5","EM","Native","42","4","2","Pa4-Pa2","3538.67",1,"Same","Same","CR"
"D,5,EM","D","5","EM","Native","41","4","1","Pha2-Pha1","4028.68",1,"Same","Same","CR"
"D,5,EM","D","5","EM","Native","14","1","4","Pa2-Pha5","3250.34",1,"Different","Different","Hit"
"D,5,EM","D","5","EM","Native","13","1","3","Pha1-Pa2","3388.11",1,"Different","Different","Hit"
"D,5,EM","D","5","EM","Native","11","1","1","Pha1-Pha2","3459.37",1,"Same","Same","CR"
"D,5,EM","D","5","EM","Native","12","1","2","Pa2-Pa4","3297.90",1,"Same","Same","CR"
"D,5,EM","D","5","EM","Native","21","2","1","Pha5-Pha1","3084.93",1,"Same","Same","CR"
"D,5,EM","D","5","EM","Native","23","2","3","Pha2-Pa4","3285.36",1,"Different","Different","Hit"
"D,5,EM","D","5","EM","Native","22","2","2","Pa5-Pa2","3200.11",1,"Same","Same","CR"
"D,5,EM","D","5","EM","Native","24","2","4","Pa4-Pha1","3422.22",1,"Different","Different","Hit"
"D,6,PH","D","6","PH","Native","21","2","1","Pha5-Pha1","3678.13",1,"Same","Same","CR"
"D,6,PH","D","6","PH","Native","22","2","2","Pa5-Pa2","-7151.20",0,"Same","Different","False+"
"D,6,PH","D","6","PH","Native","24","2","4","Pa4-Pha1","3786.40",1,"Different","Different","Hit"
"D,6,PH","D","6","PH","Native","23","2","3","Pha2-Pa4","3623.64",1,"Different","Different","Hit"
"D,6,PH","D","6","PH","Native","41","4","1","Pha2-Pha1","3134.62",1,"Same","Same","CR"
"D,6,PH","D","6","PH","Native","42","4","2","Pa4-Pa2","3185.72",1,"Same","Same","CR"
"D,6,PH","D","6","PH","Native","43","4","3","Pha1-Pa4","3276.78",1,"Different","Different","Hit"
"D,6,PH","D","6","PH","Native","44","4","4","Pa5-Pha1","3101.06",1,"Different","Different","Hit"
"D,6,PH","D","6","PH","Native","11","1","1","Pha1-Pha2","3572.31",1,"Same","Same","CR"
"D,6,PH","D","6","PH","Native","13","1","3","Pha1-Pa2","3127.70",1,"Different","Different","Hit"
"D,6,PH","D","6","PH","Native","14","1","4","Pa2-Pha5","3560.91",1,"Different","Different","Hit"
"D,6,PH","D","6","PH","Native","12","1","2","Pa2-Pa4","4334.94",1,"Same","Same","CR"
"D,6,PH","D","6","PH","Native","33","3","3","Pha5-Pa5","3339.08",1,"Different","Different","Hit"
"D,6,PH","D","6","PH","Native","32","3","2","Pa4-Pa5","3240.59",1,"Same","Same","CR"
"D,6,PH","D","6","PH","Native","31","3","1","Pha2-Pha5","3450.99",1,"Same","Same","CR"
"D,6,PH","D","6","PH","Native","34","3","4","Pa2-Pha2","4819.65",1,"Different","Different","Hit"
"D,13,MR","D","13","MR","Native","44","4","4","Pa5-Pha1","4880.39",1,"Different","Different","Hit"
"D,13,MR","D","13","MR","Native","41","4","1","Pha2-Pha1","3082.82",1,"Same","Same","CR"
"D,13,MR","D","13","MR","Native","42","4","2","Pa4-Pa2","3439.57",1,"Same","Same","CR"
"D,13,MR","D","13","MR","Native","43","4","3","Pha1-Pa4","3321.21",1,"Different","Different","Hit"
"D,13,MR","D","13","MR","Native","11","1","1","Pha1-Pha2","3528.58",1,"Same","Same","CR"
"D,13,MR","D","13","MR","Native","14","1","4","Pa2-Pha5","3351.52",1,"Different","Different","Hit"
"D,13,MR","D","13","MR","Native","13","1","3","Pha1-Pa2","3358.11",1,"Different","Different","Hit"
"D,13,MR","D","13","MR","Native","12","1","2","Pa2-Pa4","3147.84",1,"Same","Same","CR"
"D,13,MR","D","13","MR","Native","34","3","4","Pa2-Pha2","2788.66",1,"Different","Different","Hit"
"D,13,MR","D","13","MR","Native","33","3","3","Pha5-Pa5","3298.48",1,"Different","Different","Hit"
"D,13,MR","D","13","MR","Native","32","3","2","Pa4-Pa5","3138.77",1,"Same","Same","CR"
"D,13,MR","D","13","MR","Native","31","3","1","Pha2-Pha5","3264.42",1,"Same","Same","CR"
"D,13,MR","D","13","MR","Native","24","2","4","Pa4-Pha1","3632.78",1,"Different","Different","Hit"
"D,13,MR","D","13","MR","Native","23","2","3","Pha2-Pa4","4217.05",1,"Different","Different","Hit"
"D,13,MR","D","13","MR","Native","21","2","1","Pha5-Pha1","3306.24",1,"Same","Same","CR"
"D,13,MR","D","13","MR","Native","22","2","2","Pa5-Pa2","3244.26",1,"Same","Same","CR"
"C,3,TC","C","3","TC","Native","13","1","3","Pha1-Pa2","3340.98",1,"Different","Different","Hit"
"C,3,TC","C","3","TC","Native","11","1","1","Pha1-Pha2","2909.66",1,"Same","Same","CR"
"C,3,TC","C","3","TC","Native","14","1","4","Pa2-Pha5","3142.32",1,"Different","Different","Hit"
"C,3,TC","C","3","TC","Native","12","1","2","Pa2-Pa4","2988.18",1,"Same","Same","CR"
"C,3,TC","C","3","TC","Native","24","2","4","Pa4-Pha1","3060.87",1,"Different","Different","Hit"
"C,3,TC","C","3","TC","Native","22","2","2","Pa5-Pa2","2876.28",1,"Same","Same","CR"
"C,3,TC","C","3","TC","Native","21","2","1","Pha5-Pha1","4557.47",1,"Same","Same","CR"
"C,3,TC","C","3","TC","Native","23","2","3","Pha2-Pa4","2654.21",1,"Different","Different","Hit"
"C,3,TC","C","3","TC","Native","41","4","1","Pha2-Pha1","3435.27",1,"Same","Same","CR"
"C,3,TC","C","3","TC","Native","43","4","3","Pha1-Pa4","2971.38",1,"Different","Different","Hit"
"C,3,TC","C","3","TC","Native","42","4","2","Pa4-Pa2","2994.81",1,"Same","Same","CR"
"C,3,TC","C","3","TC","Native","44","4","4","Pa5-Pha1","3207.95",1,"Different","Different","Hit"
"C,3,TC","C","3","TC","Native","31","3","1","Pha2-Pha5","4721.11",1,"Same","Same","CR"
"C,3,TC","C","3","TC","Native","32","3","2","Pa4-Pa5","2928.90",1,"Same","Same","CR"
"C,3,TC","C","3","TC","Native","34","3","4","Pa2-Pha2","3119.72",1,"Different","Different","Hit"
"C,3,TC","C","3","TC","Native","33","3","3","Pha5-Pa5","5559.34",1,"Different","Different","Hit"
"C,4,MC","C","4","MC","Native","42","4","2","Pa4-Pa2","5376.81",1,"Same","Same","CR"
"C,4,MC","C","4","MC","Native","43","4","3","Pha1-Pa4","5402.95",1,"Different","Different","Hit"
"C,4,MC","C","4","MC","Native","41","4","1","Pha2-Pha1","-8733.15",0,"Same","Different","False+"
"C,4,MC","C","4","MC","Native","44","4","4","Pa5-Pha1","5197.25",1,"Different","Different","Hit"
"C,4,MC","C","4","MC","Native","11","1","1","Pha1-Pha2","3790.47",1,"Same","Same","CR"
"C,4,MC","C","4","MC","Native","13","1","3","Pha1-Pa2","-8890.63",0,"Different","Same","Miss"
"C,4,MC","C","4","MC","Native","14","1","4","Pa2-Pha5","7563.28",1,"Different","Different","Hit"
"C,4,MC","C","4","MC","Native","12","1","2","Pa2-Pa4","4987.68",1,"Same","Same","CR"
"C,4,MC","C","4","MC","Native","22","2","2","Pa5-Pa2","7086.82",1,"Same","Same","CR"
"C,4,MC","C","4","MC","Native","21","2","1","Pha5-Pha1","4746.91",1,"Same","Same","CR"
"C,4,MC","C","4","MC","Native","24","2","4","Pa4-Pha1","-5584.50",0,"Different","Same","Miss"
"C,4,MC","C","4","MC","Native","23","2","3","Pha2-Pa4","-5638.21",0,"Different","Same","Miss"
"C,4,MC","C","4","MC","Native","33","3","3","Pha5-Pa5","5963.79",1,"Different","Different","Hit"
"C,4,MC","C","4","MC","Native","32","3","2","Pa4-Pa5","4054.07",1,"Same","Same","CR"
"C,4,MC","C","4","MC","Native","31","3","1","Pha2-Pha5","3661.70",1,"Same","Same","CR"
"C,4,MC","C","4","MC","Native","34","3","4","Pa2-Pha2","4397.77",1,"Different","Different","Hit"
"D,7,BB","D","7","BB","Native","22","2","2","Pa5-Pa2","3779.58",1,"Same","Same","CR"
"D,7,BB","D","7","BB","Native","24","2","4","Pa4-Pha1","3501.93",1,"Different","Different","Hit"
"D,7,BB","D","7","BB","Native","21","2","1","Pha5-Pha1","3466.26",1,"Same","Same","CR"
"D,7,BB","D","7","BB","Native","23","2","3","Pha2-Pa4","3285.76",1,"Different","Different","Hit"
"D,7,BB","D","7","BB","Native","43","4","3","Pha1-Pa4","5555.02",1,"Different","Different","Hit"
"D,7,BB","D","7","BB","Native","44","4","4","Pa5-Pha1","3686.13",1,"Different","Different","Hit"
"D,7,BB","D","7","BB","Native","42","4","2","Pa4-Pa2","3374.38",1,"Same","Same","CR"
"D,7,BB","D","7","BB","Native","41","4","1","Pha2-Pha1","4653.03",1,"Same","Same","CR"
"D,7,BB","D","7","BB","Native","13","1","3","Pha1-Pa2","-3275.33",0,"Different","Same","Miss"
"D,7,BB","D","7","BB","Native","12","1","2","Pa2-Pa4","3496.56",1,"Same","Same","CR"
"D,7,BB","D","7","BB","Native","14","1","4","Pa2-Pha5","3170.01",1,"Different","Different","Hit"
"D,7,BB","D","7","BB","Native","11","1","1","Pha1-Pha2","4733.22",1,"Same","Same","CR"
"D,7,BB","D","7","BB","Native","32","3","2","Pa4-Pa5","4273.82",1,"Same","Same","CR"
"D,7,BB","D","7","BB","Native","34","3","4","Pa2-Pha2","4793.48",1,"Different","Different","Hit"
"D,7,BB","D","7","BB","Native","31","3","1","Pha2-Pha5","3416.59",1,"Same","Same","CR"
"D,7,BB","D","7","BB","Native","33","3","3","Pha5-Pa5","4091.34",1,"Different","Different","Hit"
"D,8,JB","D","8","JB","Native","21","2","1","Pha5-Pha1","3280.02",1,"Same","Same","CR"
"D,8,JB","D","8","JB","Native","22","2","2","Pa5-Pa2","3400.70",1,"Same","Same","CR"
"D,8,JB","D","8","JB","Native","24","2","4","Pa4-Pha1","3432.28",1,"Different","Different","Hit"
"D,8,JB","D","8","JB","Native","23","2","3","Pha2-Pa4","5769.02",1,"Different","Different","Hit"
"D,8,JB","D","8","JB","Native","43","4","3","Pha1-Pa4","3631.07",1,"Different","Different","Hit"
"D,8,JB","D","8","JB","Native","44","4","4","Pa5-Pha1","4101.04",1,"Different","Different","Hit"
"D,8,JB","D","8","JB","Native","42","4","2","Pa4-Pa2","3118.79",1,"Same","Same","CR"
"D,8,JB","D","8","JB","Native","41","4","1","Pha2-Pha1","3179.09",1,"Same","Same","CR"
"D,8,JB","D","8","JB","Native","13","1","3","Pha1-Pa2","3892.72",1,"Different","Different","Hit"
"D,8,JB","D","8","JB","Native","12","1","2","Pa2-Pa4","3139.76",1,"Same","Same","CR"
"D,8,JB","D","8","JB","Native","14","1","4","Pa2-Pha5","4832.43",1,"Different","Different","Hit"
"D,8,JB","D","8","JB","Native","11","1","1","Pha1-Pha2","3304.45",1,"Same","Same","CR"
"D,8,JB","D","8","JB","Native","33","3","3","Pha5-Pa5","4619.88",1,"Different","Different","Hit"
"D,8,JB","D","8","JB","Native","34","3","4","Pa2-Pha2","4213.19",1,"Different","Different","Hit"
"D,8,JB","D","8","JB","Native","32","3","2","Pa4-Pa5","3029.87",1,"Same","Same","CR"
"D,8,JB","D","8","JB","Native","31","3","1","Pha2-Pha5","3982.95",1,"Same","Same","CR"
"D,9,EB","D","9","EB","Native","42","4","2","Pa4-Pa2","3721.52",1,"Same","Same","CR"
"D,9,EB","D","9","EB","Native","44","4","4","Pa5-Pha1","3386.52",1,"Different","Different","Hit"
"D,9,EB","D","9","EB","Native","41","4","1","Pha2-Pha1","3142.57",1,"Same","Same","CR"
"D,9,EB","D","9","EB","Native","43","4","3","Pha1-Pa4","3097.62",1,"Different","Different","Hit"
"D,9,EB","D","9","EB","Native","21","2","1","Pha5-Pha1","5621.97",1,"Same","Same","CR"
"D,9,EB","D","9","EB","Native","23","2","3","Pha2-Pa4","3303.66",1,"Different","Different","Hit"
"D,9,EB","D","9","EB","Native","22","2","2","Pa5-Pa2","3991.39",1,"Same","Same","CR"
"D,9,EB","D","9","EB","Native","24","2","4","Pa4-Pha1","3393.90",1,"Different","Different","Hit"
"D,9,EB","D","9","EB","Native","12","1","2","Pa2-Pa4","3065.43",1,"Same","Same","CR"
"D,9,EB","D","9","EB","Native","14","1","4","Pa2-Pha5","3231.87",1,"Different","Different","Hit"
"D,9,EB","D","9","EB","Native","11","1","1","Pha1-Pha2","3108.38",1,"Same","Same","CR"
"D,9,EB","D","9","EB","Native","13","1","3","Pha1-Pa2","3085.47",1,"Different","Different","Hit"
"D,9,EB","D","9","EB","Native","34","3","4","Pa2-Pha2","3094.47",1,"Different","Different","Hit"
"D,9,EB","D","9","EB","Native","32","3","2","Pa4-Pa5","3232.35",1,"Same","Same","CR"
"D,9,EB","D","9","EB","Native","31","3","1","Pha2-Pha5","3297.07",1,"Same","Same","CR"
"D,9,EB","D","9","EB","Native","33","3","3","Pha5-Pa5","3207.43",1,"Different","Different","Hit"
"C,8,OH","C","8","OH","Native","12","1","2","Pa2-Pa4","-6436.63",0,"Same","Different","False+"
"C,8,OH","C","8","OH","Native","13","1","3","Pha1-Pa2","3478.32",1,"Different","Different","Hit"
"C,8,OH","C","8","OH","Native","11","1","1","Pha1-Pha2","3204.98",1,"Same","Same","CR"
"C,8,OH","C","8","OH","Native","14","1","4","Pa2-Pha5","3309.47",1,"Different","Different","Hit"
"C,8,OH","C","8","OH","Native","42","4","2","Pa4-Pa2","3449.06",1,"Same","Same","CR"
"C,8,OH","C","8","OH","Native","41","4","1","Pha2-Pha1","3234.41",1,"Same","Same","CR"
"C,8,OH","C","8","OH","Native","43","4","3","Pha1-Pa4","3073.01",1,"Different","Different","Hit"
"C,8,OH","C","8","OH","Native","44","4","4","Pa5-Pha1","4083.03",1,"Different","Different","Hit"
"C,8,OH","C","8","OH","Native","32","3","2","Pa4-Pa5","3109.56",1,"Same","Same","CR"
"C,8,OH","C","8","OH","Native","34","3","4","Pa2-Pha2","3086.47",1,"Different","Different","Hit"
"C,8,OH","C","8","OH","Native","33","3","3","Pha5-Pa5","3784.52",1,"Different","Different","Hit"
"C,8,OH","C","8","OH","Native","31","3","1","Pha2-Pha5","4848.04",1,"Same","Same","CR"
"C,8,OH","C","8","OH","Native","24","2","4","Pa4-Pha1","3608.08",1,"Different","Different","Hit"
"C,8,OH","C","8","OH","Native","21","2","1","Pha5-Pha1","4863.56",1,"Same","Same","CR"
"C,8,OH","C","8","OH","Native","23","2","3","Pha2-Pa4","4181.82",1,"Different","Different","Hit"
"C,8,OH","C","8","OH","Native","22","2","2","Pa5-Pa2","4233.53",1,"Same","Same","CR"
"C,6,BS","C","6","BS","Native","23","2","3","Pha2-Pa4","5018.99",1,"Different","Different","Hit"
"C,6,BS","C","6","BS","Native","24","2","4","Pa4-Pha1","3480.98",1,"Different","Different","Hit"
"C,6,BS","C","6","BS","Native","21","2","1","Pha5-Pha1","3640.39",1,"Same","Same","CR"
"C,6,BS","C","6","BS","Native","22","2","2","Pa5-Pa2","3982.54",1,"Same","Same","CR"
"C,6,BS","C","6","BS","Native","31","3","1","Pha2-Pha5","4065.80",1,"Same","Same","CR"
"C,6,BS","C","6","BS","Native","34","3","4","Pa2-Pha2","4042.98",1,"Different","Different","Hit"
"C,6,BS","C","6","BS","Native","32","3","2","Pa4-Pa5","3472.71",1,"Same","Same","CR"
"C,6,BS","C","6","BS","Native","33","3","3","Pha5-Pa5","4225.90",1,"Different","Different","Hit"
"C,6,BS","C","6","BS","Native","42","4","2","Pa4-Pa2","3603.52",1,"Same","Same","CR"
"C,6,BS","C","6","BS","Native","41","4","1","Pha2-Pha1","4556.02",1,"Same","Same","CR"
"C,6,BS","C","6","BS","Native","44","4","4","Pa5-Pha1","3458.12",1,"Different","Different","Hit"
"C,6,BS","C","6","BS","Native","43","4","3","Pha1-Pa4","-4149.57",0,"Different","Same","Miss"
"C,6,BS","C","6","BS","Native","12","1","2","Pa2-Pa4","-4391.38",0,"Same","Different","False+"
"C,6,BS","C","6","BS","Native","14","1","4","Pa2-Pha5","4344.39",1,"Different","Different","Hit"
"C,6,BS","C","6","BS","Native","11","1","1","Pha1-Pha2","-4630.00",0,"Same","Different","False+"
"C,6,BS","C","6","BS","Native","13","1","3","Pha1-Pa2","4771.73",1,"Different","Different","Hit"
"D,15,VC","D","15","VC","Native","13","1","3","Pha1-Pa2","3764.94",1,"Different","Different","Hit"
"D,15,VC","D","15","VC","Native","11","1","1","Pha1-Pha2","3321.98",1,"Same","Same","CR"
"D,15,VC","D","15","VC","Native","12","1","2","Pa2-Pa4","2876.45",1,"Same","Same","CR"
"D,15,VC","D","15","VC","Native","14","1","4","Pa2-Pha5","3568.65",1,"Different","Different","Hit"
"D,15,VC","D","15","VC","Native","41","4","1","Pha2-Pha1","3422.24",1,"Same","Same","CR"
"D,15,VC","D","15","VC","Native","42","4","2","Pa4-Pa2","3654.13",1,"Same","Same","CR"
"D,15,VC","D","15","VC","Native","43","4","3","Pha1-Pa4","3183.04",1,"Different","Different","Hit"
"D,15,VC","D","15","VC","Native","44","4","4","Pa5-Pha1","-4293.97",0,"Different","Same","Miss"
"D,15,VC","D","15","VC","Native","31","3","1","Pha2-Pha5","2769.32",1,"Same","Same","CR"
"D,15,VC","D","15","VC","Native","33","3","3","Pha5-Pa5","3940.57",1,"Different","Different","Hit"
"D,15,VC","D","15","VC","Native","34","3","4","Pa2-Pha2","5696.37",1,"Different","Different","Hit"
"D,15,VC","D","15","VC","Native","32","3","2","Pa4-Pa5","2980.74",1,"Same","Same","CR"
"D,15,VC","D","15","VC","Native","22","2","2","Pa5-Pa2","4048.86",1,"Same","Same","CR"
"D,15,VC","D","15","VC","Native","24","2","4","Pa4-Pha1","3473.19",1,"Different","Different","Hit"
"D,15,VC","D","15","VC","Native","23","2","3","Pha2-Pa4","-4372.26",0,"Different","Same","Miss"
"D,15,VC","D","15","VC","Native","21","2","1","Pha5-Pha1","5807.05",1,"Same","Same","CR"
"D,12,JC","D","12","JC","Native","23","2","3","Pha2-Pa4","3280.86",1,"Different","Different","Hit"
"D,12,JC","D","12","JC","Native","21","2","1","Pha5-Pha1","3384.04",1,"Same","Same","CR"
"D,12,JC","D","12","JC","Native","22","2","2","Pa5-Pa2","3382.20",1,"Same","Same","CR"
"D,12,JC","D","12","JC","Native","24","2","4","Pa4-Pha1","3246.64",1,"Different","Different","Hit"
"D,12,JC","D","12","JC","Native","14","1","4","Pa2-Pha5","3947.40",1,"Different","Different","Hit"
"D,12,JC","D","12","JC","Native","13","1","3","Pha1-Pa2","3082.02",1,"Different","Different","Hit"
"D,12,JC","D","12","JC","Native","11","1","1","Pha1-Pha2","3571.92",1,"Same","Same","CR"
"D,12,JC","D","12","JC","Native","12","1","2","Pa2-Pa4","3518.94",1,"Same","Same","CR"
"D,12,JC","D","12","JC","Native","32","3","2","Pa4-Pa5","3270.38",1,"Same","Same","CR"
"D,12,JC","D","12","JC","Native","31","3","1","Pha2-Pha5","3721.00",1,"Same","Same","CR"
"D,12,JC","D","12","JC","Native","33","3","3","Pha5-Pa5","3113.23",1,"Different","Different","Hit"
"D,12,JC","D","12","JC","Native","34","3","4","Pa2-Pha2","3255.76",1,"Different","Different","Hit"
"D,12,JC","D","12","JC","Native","42","4","2","Pa4-Pa2","3405.03",1,"Same","Same","CR"
"D,12,JC","D","12","JC","Native","44","4","4","Pa5-Pha1","3750.11",1,"Different","Different","Hit"
"D,12,JC","D","12","JC","Native","43","4","3","Pha1-Pa4","3333.33",1,"Different","Different","Hit"
"D,12,JC","D","12","JC","Native","41","4","1","Pha2-Pha1","3106.25",1,"Same","Same","CR"
"D,11,GJ","D","11","GJ","Native","33","3","3","Pha5-Pa5","-4099.34",0,"Different","Same","Miss"
"D,11,GJ","D","11","GJ","Native","32","3","2","Pa4-Pa5","4711.82",1,"Same","Same","CR"
"D,11,GJ","D","11","GJ","Native","31","3","1","Pha2-Pha5","3487.06",1,"Same","Same","CR"
"D,11,GJ","D","11","GJ","Native","34","3","4","Pa2-Pha2","3213.65",1,"Different","Different","Hit"
"D,11,GJ","D","11","GJ","Native","43","4","3","Pha1-Pa4","4825.69",1,"Different","Different","Hit"
"D,11,GJ","D","11","GJ","Native","42","4","2","Pa4-Pa2","3648.36",1,"Same","Same","CR"
"D,11,GJ","D","11","GJ","Native","41","4","1","Pha2-Pha1","3958.32",1,"Same","Same","CR"
"D,11,GJ","D","11","GJ","Native","44","4","4","Pa5-Pha1","3239.99",1,"Different","Different","Hit"
"D,11,GJ","D","11","GJ","Native","22","2","2","Pa5-Pa2","3860.38",1,"Same","Same","CR"
"D,11,GJ","D","11","GJ","Native","24","2","4","Pa4-Pha1","3777.94",1,"Different","Different","Hit"
"D,11,GJ","D","11","GJ","Native","23","2","3","Pha2-Pa4","3756.20",1,"Different","Different","Hit"
"D,11,GJ","D","11","GJ","Native","21","2","1","Pha5-Pha1","3570.34",1,"Same","Same","CR"
"D,11,GJ","D","11","GJ","Native","14","1","4","Pa2-Pha5","3207.38",1,"Different","Different","Hit"
"D,11,GJ","D","11","GJ","Native","12","1","2","Pa2-Pa4","4704.49",1,"Same","Same","CR"
"D,11,GJ","D","11","GJ","Native","11","1","1","Pha1-Pha2","4231.38",1,"Same","Same","CR"
"D,11,GJ","D","11","GJ","Native","13","1","3","Pha1-Pa2","3631.73",1,"Different","Different","Hit"
"D,10,SC","D","10","SC","Native","32","3","2","Pa4-Pa5","4633.30",1,"Same","Same","CR"
"D,10,SC","D","10","SC","Native","31","3","1","Pha2-Pha5","3266.57",1,"Same","Same","CR"
"D,10,SC","D","10","SC","Native","34","3","4","Pa2-Pha2","-9533.23",0,"Different","Same","Miss"
"D,10,SC","D","10","SC","Native","33","3","3","Pha5-Pa5","-5855.08",0,"Different","Same","Miss"
"D,10,SC","D","10","SC","Native","43","4","3","Pha1-Pa4","5602.46",1,"Different","Different","Hit"
"D,10,SC","D","10","SC","Native","41","4","1","Pha2-Pha1","3241.76",1,"Same","Same","CR"
"D,10,SC","D","10","SC","Native","42","4","2","Pa4-Pa2","3107.17",1,"Same","Same","CR"
"D,10,SC","D","10","SC","Native","44","4","4","Pa5-Pha1","4189.22",1,"Different","Different","Hit"
"D,10,SC","D","10","SC","Native","23","2","3","Pha2-Pa4","3698.72",1,"Different","Different","Hit"
"D,10,SC","D","10","SC","Native","21","2","1","Pha5-Pha1","3225.06",1,"Same","Same","CR"
"D,10,SC","D","10","SC","Native","24","2","4","Pa4-Pha1","4582.53",1,"Different","Different","Hit"
"D,10,SC","D","10","SC","Native","22","2","2","Pa5-Pa2","3252.40",1,"Same","Same","CR"
"D,10,SC","D","10","SC","Native","14","1","4","Pa2-Pha5","5119.21",1,"Different","Different","Hit"
"D,10,SC","D","10","SC","Native","11","1","1","Pha1-Pha2","2869.51",1,"Same","Same","CR"
"D,10,SC","D","10","SC","Native","12","1","2","Pa2-Pa4","-2774.09",0,"Same","Different","False+"
"D,10,SC","D","10","SC","Native","13","1","3","Pha1-Pa2","3502.27",1,"Different","Different","Hit"
"D,14,AC","D","14","AC","Native","32","3","2","Pa4-Pa5","3829.44",1,"Same","Same","CR"
"D,14,AC","D","14","AC","Native","34","3","4","Pa2-Pha2","3410.65",1,"Different","Different","Hit"
"D,14,AC","D","14","AC","Native","31","3","1","Pha2-Pha5","3179.58",1,"Same","Same","CR"
"D,14,AC","D","14","AC","Native","33","3","3","Pha5-Pa5","3334.49",1,"Different","Different","Hit"
"D,14,AC","D","14","AC","Native","42","4","2","Pa4-Pa2","3032.00",1,"Same","Same","CR"
"D,14,AC","D","14","AC","Native","44","4","4","Pa5-Pha1","3232.55",1,"Different","Different","Hit"
"D,14,AC","D","14","AC","Native","41","4","1","Pha2-Pha1","3209.78",1,"Same","Same","CR"
"D,14,AC","D","14","AC","Native","43","4","3","Pha1-Pa4","3391.00",1,"Different","Different","Hit"
"D,14,AC","D","14","AC","Native","14","1","4","Pa2-Pha5","2996.11",1,"Different","Different","Hit"
"D,14,AC","D","14","AC","Native","13","1","3","Pha1-Pa2","3435.98",1,"Different","Different","Hit"
"D,14,AC","D","14","AC","Native","11","1","1","Pha1-Pha2","3321.15",1,"Same","Same","CR"
"D,14,AC","D","14","AC","Native","12","1","2","Pa2-Pa4","3621.73",1,"Same","Same","CR"
"D,14,AC","D","14","AC","Native","23","2","3","Pha2-Pa4","2902.05",1,"Different","Different","Hit"
"D,14,AC","D","14","AC","Native","21","2","1","Pha5-Pha1","3090.24",1,"Same","Same","CR"
"D,14,AC","D","14","AC","Native","22","2","2","Pa5-Pa2","2857.83",1,"Same","Same","CR"
"D,14,AC","D","14","AC","Native","24","2","4","Pa4-Pha1","2950.29",1,"Different","Different","Hit"
"C,2,MC","C","2","MC","Native","44","4","4","Pa5-Pha1","3793.33",1,"Different","Different","Hit"
"C,2,MC","C","2","MC","Native","42","4","2","Pa4-Pa2","3348.62",1,"Same","Same","CR"
"C,2,MC","C","2","MC","Native","43","4","3","Pha1-Pa4","2921.76",1,"Different","Different","Hit"
"C,2,MC","C","2","MC","Native","41","4","1","Pha2-Pha1","3012.21",1,"Same","Same","CR"
"C,2,MC","C","2","MC","Native","23","2","3","Pha2-Pa4","3314.79",1,"Different","Different","Hit"
"C,2,MC","C","2","MC","Native","24","2","4","Pa4-Pha1","3162.17",1,"Different","Different","Hit"
"C,2,MC","C","2","MC","Native","21","2","1","Pha5-Pha1","3038.11",1,"Same","Same","CR"
"C,2,MC","C","2","MC","Native","22","2","2","Pa5-Pa2","3137.63",1,"Same","Same","CR"
"C,2,MC","C","2","MC","Native","12","1","2","Pa2-Pa4","3130.62",1,"Same","Same","CR"
"C,2,MC","C","2","MC","Native","13","1","3","Pha1-Pa2","3363.11",1,"Different","Different","Hit"
"C,2,MC","C","2","MC","Native","11","1","1","Pha1-Pha2","3452.95",1,"Same","Same","CR"
"C,2,MC","C","2","MC","Native","14","1","4","Pa2-Pha5","3438.34",1,"Different","Different","Hit"
"C,2,MC","C","2","MC","Native","31","3","1","Pha2-Pha5","4115.24",1,"Same","Same","CR"
"C,2,MC","C","2","MC","Native","34","3","4","Pa2-Pha2","3071.13",1,"Different","Different","Hit"
"C,2,MC","C","2","MC","Native","33","3","3","Pha5-Pa5","3344.18",1,"Different","Different","Hit"
"C,2,MC","C","2","MC","Native","32","3","2","Pa4-Pa5","3085.94",1,"Same","Same","CR"
"C,5,RT","C","5","RT","Native","21","2","1","Pha5-Pha1","4082.65",1,"Same","Same","CR"
"C,5,RT","C","5","RT","Native","24","2","4","Pa4-Pha1","3714.54",1,"Different","Different","Hit"
"C,5,RT","C","5","RT","Native","23","2","3","Pha2-Pa4","3504.02",1,"Different","Different","Hit"
"C,5,RT","C","5","RT","Native","22","2","2","Pa5-Pa2","3586.27",1,"Same","Same","CR"
"C,5,RT","C","5","RT","Native","44","4","4","Pa5-Pha1","3399.11",1,"Different","Different","Hit"
"C,5,RT","C","5","RT","Native","42","4","2","Pa4-Pa2","3134.20",1,"Same","Same","CR"
"C,5,RT","C","5","RT","Native","43","4","3","Pha1-Pa4","3140.45",1,"Different","Different","Hit"
"C,5,RT","C","5","RT","Native","41","4","1","Pha2-Pha1","3690.08",1,"Same","Same","CR"
"C,5,RT","C","5","RT","Native","32","3","2","Pa4-Pa5","3253.04",1,"Same","Same","CR"
"C,5,RT","C","5","RT","Native","34","3","4","Pa2-Pha2","3243.90",1,"Different","Different","Hit"
"C,5,RT","C","5","RT","Native","33","3","3","Pha5-Pa5","3304.93",1,"Different","Different","Hit"
"C,5,RT","C","5","RT","Native","31","3","1","Pha2-Pha5","3316.33",1,"Same","Same","CR"
"C,5,RT","C","5","RT","Native","14","1","4","Pa2-Pha5","3408.50",1,"Different","Different","Hit"
"C,5,RT","C","5","RT","Native","12","1","2","Pa2-Pa4","4427.24",1,"Same","Same","CR"
"C,5,RT","C","5","RT","Native","13","1","3","Pha1-Pa2","3746.15",1,"Different","Different","Hit"
"C,5,RT","C","5","RT","Native","11","1","1","Pha1-Pha2","4139.80",1,"Same","Same","CR"
"C,9,ST","C","9","ST","Native","14","1","4","Pa2-Pha5","3790.07",1,"Different","Different","Hit"
"C,9,ST","C","9","ST","Native","11","1","1","Pha1-Pha2","3661.96",1,"Same","Same","CR"
"C,9,ST","C","9","ST","Native","12","1","2","Pa2-Pa4","3120.32",1,"Same","Same","CR"
"C,9,ST","C","9","ST","Native","13","1","3","Pha1-Pa2","-2591.52",0,"Different","Same","Miss"
"C,9,ST","C","9","ST","Native","32","3","2","Pa4-Pa5","3044.71",1,"Same","Same","CR"
"C,9,ST","C","9","ST","Native","34","3","4","Pa2-Pha2","3388.23",1,"Different","Different","Hit"
"C,9,ST","C","9","ST","Native","31","3","1","Pha2-Pha5","3337.98",1,"Same","Same","CR"
"C,9,ST","C","9","ST","Native","33","3","3","Pha5-Pa5","3432.08",1,"Different","Different","Hit"
"C,9,ST","C","9","ST","Native","44","4","4","Pa5-Pha1","3345.77",1,"Different","Different","Hit"
"C,9,ST","C","9","ST","Native","41","4","1","Pha2-Pha1","3680.47",1,"Same","Same","CR"
"C,9,ST","C","9","ST","Native","42","4","2","Pa4-Pa2","3026.22",1,"Same","Same","CR"
"C,9,ST","C","9","ST","Native","43","4","3","Pha1-Pa4","3138.63",1,"Different","Different","Hit"
"C,9,ST","C","9","ST","Native","22","2","2","Pa5-Pa2","3079.22",1,"Same","Same","CR"
"C,9,ST","C","9","ST","Native","23","2","3","Pha2-Pa4","3088.11",1,"Different","Different","Hit"
"C,9,ST","C","9","ST","Native","24","2","4","Pa4-Pha1","3014.17",1,"Different","Different","Hit"
"C,9,ST","C","9","ST","Native","21","2","1","Pha5-Pha1","-236.14",0,"Same","Different","False+"
"C,10,EG","C","10","EG","Native","42","4","2","Pa4-Pa2","3324.22",1,"Same","Same","CR"
"C,10,EG","C","10","EG","Native","44","4","4","Pa5-Pha1","3660.44",1,"Different","Different","Hit"
"C,10,EG","C","10","EG","Native","43","4","3","Pha1-Pa4","3609.15",1,"Different","Different","Hit"
"C,10,EG","C","10","EG","Native","41","4","1","Pha2-Pha1","3006.83",1,"Same","Same","CR"
"C,10,EG","C","10","EG","Native","32","3","2","Pa4-Pa5","3062.01",1,"Same","Same","CR"
"C,10,EG","C","10","EG","Native","33","3","3","Pha5-Pa5","3181.78",1,"Different","Different","Hit"
"C,10,EG","C","10","EG","Native","34","3","4","Pa2-Pha2","3165.48",1,"Different","Different","Hit"
"C,10,EG","C","10","EG","Native","31","3","1","Pha2-Pha5","3093.23",1,"Same","Same","CR"
"C,10,EG","C","10","EG","Native","23","2","3","Pha2-Pa4","3236.43",1,"Different","Different","Hit"
"C,10,EG","C","10","EG","Native","21","2","1","Pha5-Pha1","4400.05",1,"Same","Same","CR"
"C,10,EG","C","10","EG","Native","24","2","4","Pa4-Pha1","3219.94",1,"Different","Different","Hit"
"C,10,EG","C","10","EG","Native","22","2","2","Pa5-Pa2","3191.80",1,"Same","Same","CR"
"C,10,EG","C","10","EG","Native","13","1","3","Pha1-Pa2","3222.19",1,"Different","Different","Hit"
"C,10,EG","C","10","EG","Native","12","1","2","Pa2-Pa4","3130.58",1,"Same","Same","CR"
"C,10,EG","C","10","EG","Native","14","1","4","Pa2-Pha5","3430.44",1,"Different","Different","Hit"
"C,10,EG","C","10","EG","Native","11","1","1","Pha1-Pha2","3244.54",1,"Same","Same","CR"
"C,13,CO","C","13","CO","Native","32","3","2","Pa4-Pa5","4267.23",1,"Same","Same","CR"
"C,13,CO","C","13","CO","Native","33","3","3","Pha5-Pa5","3349.14",1,"Different","Different","Hit"
"C,13,CO","C","13","CO","Native","31","3","1","Pha2-Pha5","3074.98",1,"Same","Same","CR"
"C,13,CO","C","13","CO","Native","34","3","4","Pa2-Pha2","3223.15",1,"Different","Different","Hit"
"C,13,CO","C","13","CO","Native","44","4","4","Pa5-Pha1","3765.06",1,"Different","Different","Hit"
"C,13,CO","C","13","CO","Native","41","4","1","Pha2-Pha1","3413.81",1,"Same","Same","CR"
"C,13,CO","C","13","CO","Native","43","4","3","Pha1-Pa4","3320.92",1,"Different","Different","Hit"
"C,13,CO","C","13","CO","Native","42","4","2","Pa4-Pa2","3383.06",1,"Same","Same","CR"
"C,13,CO","C","13","CO","Native","11","1","1","Pha1-Pha2","3133.66",1,"Same","Same","CR"
"C,13,CO","C","13","CO","Native","12","1","2","Pa2-Pa4","3429.95",1,"Same","Same","CR"
"C,13,CO","C","13","CO","Native","13","1","3","Pha1-Pa2","3145.94",1,"Different","Different","Hit"
"C,13,CO","C","13","CO","Native","14","1","4","Pa2-Pha5","3575.62",1,"Different","Different","Hit"
"C,13,CO","C","13","CO","Native","24","2","4","Pa4-Pha1","3542.25",1,"Different","Different","Hit"
"C,13,CO","C","13","CO","Native","23","2","3","Pha2-Pa4","3400.68",1,"Different","Different","Hit"
"C,13,CO","C","13","CO","Native","22","2","2","Pa5-Pa2","2999.18",1,"Same","Same","CR"
"C,13,CO","C","13","CO","Native","21","2","1","Pha5-Pha1","3920.75",1,"Same","Same","CR"
"C,14,AO","C","14","AO","Native","32","3","2","Pa4-Pa5","3549.92",1,"Same","Same","CR"
"C,14,AO","C","14","AO","Native","31","3","1","Pha2-Pha5","3581.23",1,"Same","Same","CR"
"C,14,AO","C","14","AO","Native","34","3","4","Pa2-Pha2","3427.28",1,"Different","Different","Hit"
"C,14,AO","C","14","AO","Native","33","3","3","Pha5-Pa5","3698.65",1,"Different","Different","Hit"
"C,14,AO","C","14","AO","Native","12","1","2","Pa2-Pa4","3148.01",1,"Same","Same","CR"
"C,14,AO","C","14","AO","Native","13","1","3","Pha1-Pa2","3296.48",1,"Different","Different","Hit"
"C,14,AO","C","14","AO","Native","11","1","1","Pha1-Pha2","3268.14",1,"Same","Same","CR"
"C,14,AO","C","14","AO","Native","14","1","4","Pa2-Pha5","3659.73",1,"Different","Different","Hit"
"C,14,AO","C","14","AO","Native","24","2","4","Pa4-Pha1","3678.97",1,"Different","Different","Hit"
"C,14,AO","C","14","AO","Native","23","2","3","Pha2-Pa4","6097.01",1,"Different","Different","Hit"
"C,14,AO","C","14","AO","Native","21","2","1","Pha5-Pha1","3406.70",1,"Same","Same","CR"
"C,14,AO","C","14","AO","Native","22","2","2","Pa5-Pa2","3514.12",1,"Same","Same","CR"
"C,14,AO","C","14","AO","Native","41","4","1","Pha2-Pha1","3658.62",1,"Same","Same","CR"
"C,14,AO","C","14","AO","Native","44","4","4","Pa5-Pha1","4198.24",1,"Different","Different","Hit"
"C,14,AO","C","14","AO","Native","42","4","2","Pa4-Pa2","3706.88",1,"Same","Same","CR"
"C,14,AO","C","14","AO","Native","43","4","3","Pha1-Pa4","4414.77",1,"Different","Different","Hit"
"C,7,DD","C","7","DD","Native","42","4","2","Pa4-Pa2","3846.76",1,"Same","Same","CR"
"C,7,DD","C","7","DD","Native","44","4","4","Pa5-Pha1","3933.01",1,"Different","Different","Hit"
"C,7,DD","C","7","DD","Native","41","4","1","Pha2-Pha1","3779.46",1,"Same","Same","CR"
"C,7,DD","C","7","DD","Native","43","4","3","Pha1-Pa4","3992.05",1,"Different","Different","Hit"
"C,7,DD","C","7","DD","Native","11","1","1","Pha1-Pha2","3164.47",1,"Same","Same","CR"
"C,7,DD","C","7","DD","Native","12","1","2","Pa2-Pa4","4646.90",1,"Same","Same","CR"
"C,7,DD","C","7","DD","Native","13","1","3","Pha1-Pa2","3418.95",1,"Different","Different","Hit"
"C,7,DD","C","7","DD","Native","14","1","4","Pa2-Pha5","4181.25",1,"Different","Different","Hit"
"C,7,DD","C","7","DD","Native","33","3","3","Pha5-Pa5","3385.66",1,"Different","Different","Hit"
"C,7,DD","C","7","DD","Native","34","3","4","Pa2-Pha2","3403.01",1,"Different","Different","Hit"
"C,7,DD","C","7","DD","Native","32","3","2","Pa4-Pa5","2973.79",1,"Same","Same","CR"
"C,7,DD","C","7","DD","Native","31","3","1","Pha2-Pha5","3250.25",1,"Same","Same","CR"
"C,7,DD","C","7","DD","Native","21","2","1","Pha5-Pha1","3206.41",1,"Same","Same","CR"
"C,7,DD","C","7","DD","Native","23","2","3","Pha2-Pa4","3221.18",1,"Different","Different","Hit"
"C,7,DD","C","7","DD","Native","24","2","4","Pa4-Pha1","3447.29",1,"Different","Different","Hit"
"C,7,DD","C","7","DD","Native","22","2","2","Pa5-Pa2","3518.02",1,"Same","Same","CR"
"C,15,MD","C","15","MD","Native","41","4","1","Pha2-Pha1","3529.61",1,"Same","Same","CR"
"C,15,MD","C","15","MD","Native","44","4","4","Pa5-Pha1","4687.42",1,"Different","Different","Hit"
"C,15,MD","C","15","MD","Native","42","4","2","Pa4-Pa2","3533.37",1,"Same","Same","CR"
"C,15,MD","C","15","MD","Native","43","4","3","Pha1-Pa4","3462.16",1,"Different","Different","Hit"
"C,15,MD","C","15","MD","Native","33","3","3","Pha5-Pa5","3494.88",1,"Different","Different","Hit"
"C,15,MD","C","15","MD","Native","31","3","1","Pha2-Pha5","3795.56",1,"Same","Same","CR"
"C,15,MD","C","15","MD","Native","32","3","2","Pa4-Pa5","3356.05",1,"Same","Same","CR"
"C,15,MD","C","15","MD","Native","34","3","4","Pa2-Pha2","3816.42",1,"Different","Different","Hit"
"C,15,MD","C","15","MD","Native","24","2","4","Pa4-Pha1","5176.02",1,"Different","Different","Hit"
"C,15,MD","C","15","MD","Native","21","2","1","Pha5-Pha1","3216.62",1,"Same","Same","CR"
"C,15,MD","C","15","MD","Native","23","2","3","Pha2-Pa4","3711.87",1,"Different","Different","Hit"
"C,15,MD","C","15","MD","Native","22","2","2","Pa5-Pa2","4105.78",1,"Same","Same","CR"
"C,15,MD","C","15","MD","Native","12","1","2","Pa2-Pa4","3784.05",1,"Same","Same","CR"
"C,15,MD","C","15","MD","Native","13","1","3","Pha1-Pa2","3716.41",1,"Different","Different","Hit"
"C,15,MD","C","15","MD","Native","11","1","1","Pha1-Pha2","3738.26",1,"Same","Same","CR"
"C,15,MD","C","15","MD","Native","14","1","4","Pa2-Pha5","3288.94",1,"Different","Different","Hit"
"C,12,CP","C","12","CP","Native","41","4","1","Pha2-Pha1","3510.85",1,"Same","Same","CR"
"C,12,CP","C","12","CP","Native","43","4","3","Pha1-Pa4","3428.02",1,"Different","Different","Hit"
"C,12,CP","C","12","CP","Native","44","4","4","Pa5-Pha1","3614.00",1,"Different","Different","Hit"
"C,12,CP","C","12","CP","Native","42","4","2","Pa4-Pa2","3348.40",1,"Same","Same","CR"
"C,12,CP","C","12","CP","Native","12","1","2","Pa2-Pa4","3514.26",1,"Same","Same","CR"
"C,12,CP","C","12","CP","Native","13","1","3","Pha1-Pa2","3478.36",1,"Different","Different","Hit"
"C,12,CP","C","12","CP","Native","14","1","4","Pa2-Pha5","3372.45",1,"Different","Different","Hit"
"C,12,CP","C","12","CP","Native","11","1","1","Pha1-Pha2","-4206.20",0,"Same","Different","False+"
"C,12,CP","C","12","CP","Native","33","3","3","Pha5-Pa5","3667.42",1,"Different","Different","Hit"
"C,12,CP","C","12","CP","Native","32","3","2","Pa4-Pa5","3311.83",1,"Same","Same","CR"
"C,12,CP","C","12","CP","Native","31","3","1","Pha2-Pha5","3773.69",1,"Same","Same","CR"
"C,12,CP","C","12","CP","Native","34","3","4","Pa2-Pha2","3423.65",1,"Different","Different","Hit"
"C,12,CP","C","12","CP","Native","24","2","4","Pa4-Pha1","3338.82",1,"Different","Different","Hit"
"C,12,CP","C","12","CP","Native","22","2","2","Pa5-Pa2","3611.23",1,"Same","Same","CR"
"C,12,CP","C","12","CP","Native","23","2","3","Pha2-Pa4","3442.38",1,"Different","Different","Hit"
"C,12,CP","C","12","CP","Native","21","2","1","Pha5-Pha1","3702.10",1,"Same","Same","CR"
"C,11,EP","C","11","EP","Native","11","1","1","Pha1-Pha2","4391.76",1,"Same","Same","CR"
"C,11,EP","C","11","EP","Native","12","1","2","Pa2-Pa4","3844.49",1,"Same","Same","CR"
"C,11,EP","C","11","EP","Native","13","1","3","Pha1-Pa2","3733.00",1,"Different","Different","Hit"
"C,11,EP","C","11","EP","Native","14","1","4","Pa2-Pha5","3555.33",1,"Different","Different","Hit"
"C,11,EP","C","11","EP","Native","23","2","3","Pha2-Pa4","3592.40",1,"Different","Different","Hit"
"C,11,EP","C","11","EP","Native","21","2","1","Pha5-Pha1","3555.42",1,"Same","Same","CR"
"C,11,EP","C","11","EP","Native","22","2","2","Pa5-Pa2","3991.72",1,"Same","Same","CR"
"C,11,EP","C","11","EP","Native","24","2","4","Pa4-Pha1","3412.87",1,"Different","Different","Hit"
"C,11,EP","C","11","EP","Native","32","3","2","Pa4-Pa5","3743.00",1,"Same","Same","CR"
"C,11,EP","C","11","EP","Native","33","3","3","Pha5-Pa5","3336.97",1,"Different","Different","Hit"
"C,11,EP","C","11","EP","Native","31","3","1","Pha2-Pha5","4146.95",1,"Same","Same","CR"
"C,11,EP","C","11","EP","Native","34","3","4","Pa2-Pha2","3055.51",1,"Different","Different","Hit"
"C,11,EP","C","11","EP","Native","44","4","4","Pa5-Pha1","3180.89",1,"Different","Different","Hit"
"C,11,EP","C","11","EP","Native","42","4","2","Pa4-Pa2","3694.78",1,"Same","Same","CR"
"C,11,EP","C","11","EP","Native","41","4","1","Pha2-Pha1","3917.11",1,"Same","Same","CR"
"C,11,EP","C","11","EP","Native","43","4","3","Pha1-Pa4","3558.44",1,"Different","Different","Hit"